accel_x,accel_y,accel_z,activity,magnitude,xy_magnitude,x_rolling_mean,y_rolling_mean,z_rolling_mean,x_rolling_std,y_rolling_std
1.0291763636778386,0.705814713860222,10.967634711494815,jogging,11.038405209206658,1.2479496776131342,1.0291763636778386,0.705814713860222,10.967634711494815,0.0,0.0
-0.18829834466717266,0.10033658927291456,9.43093462668557,sitting,9.433347848487736,0.21336283123196248,0.420439009505333,0.40307565156656827,10.199284669090193,0.8608846221938716,0.42813768775579836
0.5759282611881612,-0.06686612236165373,9.415582547832074,jogging,9.433417151562567,0.5797968957789464,0.47226876006627566,0.2464283935904943,9.93805062867082,0.6153211645105109,0.4065292488034641
-0.04195795141909059,-0.1335425669906219,9.011819405384648,jogging,9.012906472506693,0.13997888014172533,0.34371208219493415,0.15143565344521523,9.706492822849278,0.5643763827130889,0.3824550119204086
0.5490561242923978,0.39007724229553375,9.965191693461884,walking,9.98792612958374,0.6735153172570595,0.3847808906144269,0.19916397121527893,9.758232596971798,0.4973165602995925,0.3479854001148336
2.246885079880314,-0.5292271634807386,12.256197968641583,jogging,12.47168643765905,2.308370410647874,0.695131588825408,0.07776544876594267,10.174560158916762,0.8807748544315033,0.4304656530685772
0.7195395654205523,0.7512403521584453,10.747018731915702,jogging,10.79724552268141,1.0402399977489531,0.6986184426247144,0.17397614925058594,10.256339955059468,0.8040866830623967,0.46820158508276893
0.617761791553767,0.3906672982819911,9.675362667662146,walking,9.702932202166572,0.7309244619320591,0.688511361240846,0.20106254287951156,10.183717794134802,0.7449882967958368,0.4401885988583409
-0.07783085530065034,-0.0691054377393896,9.949100418255327,sitting,9.949644834670748,0.10408267657003938,0.6033622260695686,0.1710438783663003,10.15764919681486,0.742216271750468,0.42149179614397153
0.03149718715553322,-0.1277371133550618,9.53073062050702,sitting,9.531638631609841,0.13156307584955057,0.546175722178165,0.14116577919416412,10.094957339184077,0.7227575752220914,0.4084640262476504
0.6690933832493695,-0.09444741091531797,9.642540110506175,walking,9.666187772418718,0.6757264749413734,0.5101674241353182,0.06113956671661012,9.962447879085214,0.704766294542063,0.3612061516248946
0.5527358639683335,0.7518797099450084,8.741976043936193,jogging,8.791642917356123,0.9331881019086185,0.5842708449988688,0.12629387878381948,9.893552020810276,0.6607490901618241,0.42260615376828276
-0.03759835793518662,-0.06975419424751146,9.639476230473973,sitting,9.639801931679262,0.07924193419233261,0.5229181830865339,0.12600507159523372,9.915941389074465,0.6894695591510115,0.42275378671360764
0.7393879420133831,0.3135008106063356,9.148843431714335,walking,9.184024903334493,0.8031047796182111,0.6010527724297814,0.17070940935492945,9.929643791707432,0.6620706932412432,0.41583807945624773
0.8219551139959004,0.3523669981122031,9.135048347672669,walking,9.17871892069366,0.8943001234387811,0.6283426714001316,0.1669383849365964,9.846629457128513,0.6653057135945697,0.41379366867305567
-0.11652019999652885,0.11378577759693718,10.025631935102785,sitting,10.026954665218318,0.16286239649032166,0.3920021434124473,0.23123967904436396,9.623572853774633,0.3887669896702895,0.33629665586760643
0.6485637235436961,0.2071983108034434,9.238951722531276,walking,9.264005341900463,0.6808568450832114,0.3849045592247617,0.1768354749088638,9.47276615283619,0.38272375806497616,0.28253575581021473
0.04337476093485353,-0.0947530740972112,9.734221324159254,sitting,9.734779109083767,0.10420899643038165,0.3274658561628704,0.12829343767094356,9.478652018485901,0.3869719113068237,0.2834139252583903
1.9192706564506155,0.8517314723264268,10.492611735149582,jogging,10.700651726799748,2.0997729290720266,0.527176007337997,0.2203771286775252,9.533003150175327,0.6072214491102668,0.3531624256080549
0.3272239315127421,0.724687765198812,8.492018726865638,jogging,8.52916349449465,0.7951401501518485,0.5567486817737178,0.30561961653291253,9.429131960811187,0.5872723108152629,0.36255209050978043
0.3979613482534266,0.1662589130703956,8.223860853441703,jogging,8.23516257263024,0.43129486535204015,0.5296354782741235,0.3316902489314839,9.28726403510474,0.5877678803697761,0.33920940197248833
0.490654166403486,-0.13372488297913254,10.50480254012717,jogging,10.517105127476816,0.5085507401792692,0.5234273085176387,0.24312978963906984,9.463546684723838,0.5878246367269083,0.332864616764251
-0.10630362728537182,0.12228079221334083,9.896609738443583,sitting,9.89793601557288,0.16202793993120287,0.5165567815826203,0.26233328828515506,9.489260035520799,0.5954624200823486,0.31801642638323446
-0.03310243342080806,0.057751695460721175,9.930073533365029,sitting,9.930296642470637,0.06656597799902675,0.43930774403920114,0.23675837677059358,9.567383045685869,0.6131862896324018,0.3236776137589833
-0.1381769188567704,-0.09427752402304745,9.728701487347672,sitting,9.730139451331697,0.1672755584078762,0.34329454075393406,0.19209392455706856,9.626748359653368,0.6217235010868024,0.33651400172434515
0.4337971069235154,0.1579314019854882,9.427650604263723,walking,9.43894687842783,0.46165166273751657,0.39832627144593846,0.19650848699592366,9.566950226569464,0.6004939828614226,0.3356610540182283
1.2032617208990728,1.976684280820863,9.697413308033383,jogging,9.969701318587646,2.3141131162986155,0.4537960711814762,0.3734570839976656,9.612796385119672,0.6497752192191719,0.6557284849217547
0.481701195401703,-0.22026523402454024,9.387775033753103,walking,9.402705615902764,0.5296723656859164,0.4976287146281611,0.36090586800493274,9.578151756079057,0.6335956086179765,0.6667940479959551
0.11951774115114165,-0.017870688456349575,10.003017734221418,sitting,10.003747679899966,0.12084639819115506,0.3176534230982137,0.2739456519266551,9.529192355986243,0.3959491548786398,0.6522158671320059
0.4072549904443635,0.041128656411618184,10.28636583524214,walking,10.294506801690735,0.409326512236947,0.32565652899137587,0.2055897410479357,9.708627066823892,0.3969715842674363,0.6353284217414025
0.15448414624182585,0.13163448375195194,9.776119743262004,sitting,9.77822633320327,0.2029605595989249,0.3013088087902158,0.20212729811609131,9.863852955805921,0.3995027230306148,0.6356608470449864
0.034222557942434555,-0.060082963909591475,9.812047935893782,sitting,9.81229156936858,0.06914583157562401,0.2556656479441106,0.20949149002304543,9.794577495382585,0.40153486786494613,0.6317522046687364
0.043074381188402955,-0.2793300049266844,10.15706648520228,walking,10.16099799423199,0.2826316577581241,0.2706034487914882,0.1693304103090429,9.820623170058454,0.3891606584191387,0.6504023761239199
0.0002925966679437699,0.025368355429809693,9.688015497159514,sitting,9.688048715415965,0.025370042767469802,0.2739429518003633,0.16609207630595177,9.796417366437902,0.38639837439744645,0.6510998944841517
-0.036702261472164176,-0.19252622125874855,9.72897149276687,sitting,9.730945468398216,0.19599337200360553,0.28409041753882397,0.15626720658238163,9.796444366979822,0.3755531156045339,0.6561867220114621
-0.06920651986646918,0.11626480586861927,9.655190568480062,sitting,9.656138563687975,0.13530353829702946,0.23379005485982546,0.15210054697069475,9.819198363401455,0.3867911655947775,0.6563072569130558
2.5945334947337244,0.39340973436659815,11.108528413068372,jogging,11.41427959962156,2.6241904036082424,0.37291723224329065,-0.006226907674731702,9.960309873904956,0.8018130299395332,0.19863462617376243
-0.22675339308269293,0.5140737114524305,8.82162729414827,jogging,8.839502078677436,0.5618619777854621,0.30207177339485103,0.06720698687296538,9.903695099944471,0.8221730915804961,0.2417704128736304
-0.2722454140991939,-0.06270278518303946,9.725825303927754,sitting,9.729836948648684,0.2793728776523447,0.2628954578698175,0.06272377720029639,9.875975856915105,0.8409573745871587,0.2439293475160113
0.060694260838663784,-0.040283342847480405,10.001702775984594,sitting,10.001968054345488,0.07284600887982406,0.2282393849092475,0.054582577274386535,9.84750955098935,0.8414880317600052,0.24607927028875295
0.42219298389710475,0.5216181609824273,10.416732063559405,walking,10.438325502948507,0.6710681198795174,0.2550102686747754,0.09358094499743407,9.91157078301909,0.843137680170625,0.2871259070898783
0.39011624149538066,0.15877010002512545,10.296871193466135,walking,10.305481793752932,0.421187163313972,0.29059963703007,0.11546625139090576,9.960053108776325,0.8402890183207213,0.2824139871758293
0.3330883623271337,-0.2932612365680851,9.511328784062007,jogging,9.52167659861002,0.44379050236706763,0.31960103514394306,0.1140731282267657,9.895479338662298,0.8357894762416023,0.28460374184748777
0.1542547211374117,0.024784628190182477,9.683470685206792,sitting,9.684730936275256,0.15623314881197983,0.3349972475908899,0.11401475550280298,9.895024857467027,0.8306562016771477,0.28462401599115467
1.3407114345183504,0.3654031978315314,10.11297892816363,walking,10.208005165021977,1.3896138483887395,0.4727386171899413,0.16980769741183094,9.933425601006702,0.8751813259879081,0.2722739080705911
2.1586377196955424,1.0345471893610871,11.610614427012585,jogging,11.854803754793247,2.39374282075316,0.6955230411461425,0.26163593576107774,10.128967986859955,0.9969789609335191,0.3840979364784286
0.4782858378090112,-0.5635235702759291,9.187959946902161,jogging,9.217642005566475,0.7391320294136885,0.4838982754536712,0.165942605296825,9.936911140243334,0.7407806934452932,0.45943597845786055
-0.05688769751973691,0.10750212145109098,9.76001790435789,sitting,9.76077570737245,0.1216261330700857,0.5008848450099668,0.12528544629669106,10.030750201264294,0.7244417437777692,0.44289737236283855
0.30894638599762553,0.02148553221469965,9.725909031150826,walking,9.730838400658843,0.30969258550301576,0.5590040250196487,0.13370427803646495,10.030758573986603,0.6773046372528416,0.43971566844990073
0.45398999731311174,0.5436959065789513,10.172055636669345,walking,10.196687110625081,0.7083164239879426,0.5983335986670936,0.19210220297910813,10.047793860055076,0.6562453230395858,0.45263022541107023
-0.08065198324565614,0.03254851123246177,9.938894919477836,sitting,9.939275444840394,0.08697211038549824,0.5480491019528174,0.14319523800411155,10.000010145646922,0.6896562681895104,0.43929549537887863
-0.25208470065727345,-0.009512487755346981,9.703020728078524,sitting,9.706299420131765,0.25226411502384316,0.483829007737552,0.12636697922606432,9.940625099108159,0.7344431770573298,0.4418483853322204
1.272322339445422,0.19525473732362825,10.43312129488771,jogging,10.512228522142134,1.287217366220325,0.5777524054493808,0.17521857661523565,10.03280435019073,0.7721142667684378,0.4165817058228664
-0.1026625482884179,-0.05297677059230407,9.571891770554883,sitting,9.572588897694278,0.11552548222561702,0.5520606785067979,0.16744243673698703,10.021646458725538,0.7917952555810364,0.4204099743465974
0.09877285159245996,0.07639029085756444,9.903132607938876,sitting,9.90391977972213,0.12486613932131246,0.42786682021420885,0.1385411460395903,10.000661826703062,0.7506823736915693,0.4151907330194859
0.8643059973112261,-0.04507949531023184,9.601562631136302,walking,9.640490753977135,0.8654808015696122,0.2984336479757772,0.030578477572458428,9.799756647115435,0.48294214325637425,0.2719845656370473
0.7301185601440146,0.6880451731489754,9.990377861850652,walking,10.040623939512722,1.0032344053910693,0.32361692020927757,0.15573535191494886,9.879998438610283,0.49963999315057567,0.25570017513699234
0.5231500152450881,0.009730800802164319,9.459757962727055,walking,9.474217716535394,0.5232405058242217,0.38162069148576006,0.14595821985005622,9.8499724444472,0.48398191218245695,0.25958902934281836
-0.11362234229950396,1.2277297895225996,7.919067330529915,jogging,8.01447801533057,1.2329762660938905,0.3393638186560471,0.2665826455808462,9.669288274385108,0.5088411776553631,0.4237021930491746
0.43401134137049957,0.33838712775785607,8.850501444246591,walking,8.867595362175782,0.5503377986931589,0.3373659530617859,0.24605176769873668,9.537132855142834,0.5083801262345601,0.41363710481608873
-0.1391983286797076,0.15051959988790398,9.937505970888353,sitting,9.939620578578404,0.20501786424026225,0.3315113185183807,0.2578488765642809,9.536993960283885,0.5140346861246157,0.40852198731998124
0.008919819661257138,-0.09172616421772875,9.775063689151876,sitting,9.77549811413006,0.09215884322671965,0.3576117705502338,0.24962750891804272,9.54419825639122,0.4870265281877631,0.41527188259446324
0.690298696033958,0.12737668621403553,10.168014615387326,walking,10.192215575068422,0.7019523558882409,0.2994094062090874,0.24283970380708345,9.517687588441182,0.3908485875939816,0.416811274991539
1.692362830904936,0.22045793040077633,9.838363150317335,jogging,9.985293342112048,1.7066615512471015,0.4789119441284228,0.2701831739063915,9.544334726417429,0.5608831668203199,0.40402167905594455
0.3190302969221016,0.2244433593432225,10.672318215012531,walking,10.67944433172418,0.39007070116515447,0.5009376886613869,0.2849884807549573,9.621253287124793,0.5484842161831647,0.3988101932737979
1.0405546319689332,-0.5572953240417293,9.006741415211767,jogging,9.083761497353485,1.1803948577958048,0.5185625521271576,0.23376689788180754,9.56177116553234,0.564068354631502,0.4720765905150067
0.47522035070926577,-0.1805003887308782,9.873680103194602,walking,9.886757484245338,0.5083451308513103,0.4930727311836828,0.1469123416938222,9.550101389666736,0.5591842541147303,0.4589260724636334
-0.022518819768661602,-0.03431702246796911,9.244568399291502,walking,9.244659520201589,0.04104577048662336,0.43850584768230777,0.14250755936680887,9.52858243332318,0.5820784432717555,0.4605973833671103
-0.030173305395863576,0.1366214785205788,9.892902394315206,sitting,9.893891733802183,0.13991374754348132,0.4468507513726719,0.03339672826660678,9.725965939701709,0.5738230527955556,0.2609012517689214
0.721245547188716,0.5539263923410015,9.300971314989996,walking,9.345324873418699,0.909411671066227,0.4755741719544934,0.05495065472492132,9.771012926776049,0.5802617577820683,0.2955054875431771
-0.09009211185541528,0.010752500043079883,9.627623059667483,sitting,9.6280505806688,0.09073149880689227,0.4804847936369227,0.04097394474043891,9.740024635653961,0.574661769405779,0.2937833683914785
0.23056368373671893,-0.07228347951782498,9.765817356742716,sitting,9.768806127614916,0.24162887590155605,0.5026491800444688,0.04291821321042929,9.739100002413046,0.5584999531676171,0.29287049305571183
2.4657451002085793,0.854156649216171,10.687267747473701,jogging,11.001235130056735,2.609498511324123,0.680193820461931,0.11559620951064283,9.791025315621685,0.8373643861478108,0.39017258093952106
0.5567561166801018,0.3877879807726664,9.346566153256687,walking,9.371160853848147,0.6784960511988622,0.5666331490394476,0.13232921454783184,9.741845615915619,0.758097218682905,0.3986650266844802
1.4836436940590316,0.3607809346588566,10.677242063376085,jogging,10.785863877022647,1.5268796592182527,0.6830944887531406,0.14596297207939526,9.742338000751975,0.8039051400365175,0.40445444885920656
0.550671079115739,0.6490514753145922,9.515562435103327,walking,9.55355613953946,0.8511794493422296,0.6341061334678212,0.2665976520150274,9.793220102741131,0.794574021689241,0.34725097581025355
0.14955717364824264,0.12374645917335386,9.496849651868564,sitting,9.498833288596218,0.1941147453121301,0.6015398157617189,0.2970223368054506,9.755537057608526,0.8083637956803592,0.3156126938409824
-0.2564668456158462,0.6370235304292071,9.859120850279453,walking,9.883007546371482,0.6867126190923196,0.5781450131770003,0.36415639209516826,9.816992302707321,0.8314860403725151,0.30862555152508847
0.9440201950256196,-0.21506359870197184,9.501888145358098,jogging,9.551089194798655,0.9682078702958635,0.6755643632191487,0.32898788437291315,9.777890877811611,0.8090618361455151,0.3541190949975611
-0.1866700586803942,0.021655473837820585,9.954060545096622,sitting,9.955834269703576,0.18792197943530276,0.5847728026322377,0.2757607925225951,9.843199800822273,0.8531093355332521,0.35654634202567465
1.7146662385358353,0.9513532700859035,11.520582452206888,jogging,11.686272861446247,1.960906258360601,0.7652486376713628,0.3698208695268775,10.032495740076214,0.8847888071126726,0.4002569266391707
0.4951151181304909,0.4041735532816688,9.581384661812832,walking,9.602678130552741,0.6391363245612786,0.7917037811107399,0.4174665728068268,10.014052470583227,0.8708709861715237,0.368913297090284
0.8064476673832818,1.1147289348737515,9.657264645363131,jogging,9.754780308600157,1.3758555296515345,0.6257740378282103,0.4435238013725849,9.911052160372169,0.6453442421663877,0.41008941762683954
0.7232201558021093,0.30654586772215364,10.100769771579364,jogging,10.131266837924436,0.7855047821470951,0.6424204417404109,0.43539959006753365,9.986472522204437,0.6455130571802968,0.41211600558871614
0.9991338971022637,0.041298063823946796,8.908544610128454,jogging,8.964493356853085,0.9999870371231638,0.5939694620447342,0.40345130298404264,9.809602776879673,0.5912601342868603,0.43051617047168217
1.0160958697085398,0.5842632742445037,10.175827728949432,walking,10.243109115855685,1.1720982851577175,0.6405119411040142,0.3969724828770338,9.875629306264283,0.605617301977017,0.4268816295129822
0.600883338702953,-0.27595830115417747,8.544143663398009,jogging,8.569691051110947,0.6612214233573406,0.6856445576094854,0.35700200684428063,9.780358707417228,0.581293114033006,0.47167059139309625
0.9800242220692277,-0.6368687169588123,8.955151775390974,jogging,9.03110140341538,1.1687810909161556,0.8092936643779927,0.2296127821054787,9.68996179992838,0.48158414916161296,0.5527049782893572
-0.16721683540678234,-0.05209900715657356,10.039865915687932,walking,10.041393497995307,0.17514501588729164,0.6981699613347525,0.2459092412600185,9.743759576961363,0.5675724504768411,0.5404025084225037
0.17127114112762729,0.00567066488392655,9.926532543683319,sitting,9.928011598554233,0.17136499124204285,0.7339640813155547,0.24431076036462912,9.741006776820033,0.5143620314229431,0.5411626485784965
0.7212223260212908,0.311764614533253,9.432367453651258,walking,9.465036428832493,0.7857218454559023,0.6346196900641001,0.18035189480936403,9.532185276964471,0.38308792793214197,0.4829822468564472
0.08967973320332352,0.07125044420921607,9.73056254307705,sitting,9.731236636989236,0.11453855397825616,0.5940761515713835,0.14705958390211876,9.54710306509089,0.4192410458334892,0.47728047531740075
0.018228022353786972,-0.11182319393560314,9.88478706859621,sitting,9.885436362598657,0.11329910635521212,0.515254187068434,0.02440437102118332,9.5698553074142,0.4479878317938435,0.33835602164572065
0.7025807733135061,0.24949773006058562,10.50069893561093,walking,10.527133845291212,0.7455661341123194,0.5131902488195736,0.018699557255026516,9.609848223817357,0.4469696341003351,0.33351677012261427
0.4576325329981119,1.1885222007707537,9.487306627592464,jogging,9.572408244686553,1.2735825677918269,0.4590401124091585,0.1334219709497072,9.667724425563758,0.4130724636480504,0.4986050459165306
-0.21395714620965928,0.29571756609541755,9.87869771240419,walking,9.88543853515722,0.36500210863990795,0.33603481081733855,0.10456740013479857,9.638011423909234,0.4119022123958741,0.47751894007798895
0.07172635437832152,-0.03874886632696904,9.854002469785735,sitting,9.854339694728276,0.08152388946824041,0.2831191123848754,0.12828834361751945,9.768997304548005,0.40806922059942335,0.46216062076738157
2.2328481003145173,0.7841685487796428,11.631718061275661,jogging,11.870020893367448,2.3665440946606764,0.4084015002094044,0.27039207019136496,10.036653933136474,0.7193742671921678,0.41701462532369793
0.24672745548739172,-0.5519766581037844,9.292017277984678,jogging,9.31166675535312,0.6046095172776433,0.44979592929882184,0.22040430509664385,9.961869069366148,0.6940349869124637,0.4844714007522786
1.9382220470920766,1.2133310328436662,10.205224419407068,jogging,10.458273392370158,2.2866737631536505,0.6264910198952667,0.3411703418926178,9.989738256938526,0.8273643405162956,0.5682684652446133
0.7121803656593053,0.183491607778576,8.086011111293208,jogging,8.119387029530802,0.7354386740958002,0.6255868238590682,0.3283430412171501,9.85510262270272,0.8272542424950204,0.5704495232599267
0.9265705737876127,0.7409758133109187,9.294058017596818,jogging,9.369476645927273,1.1864140019912455,0.7092759079174972,0.3953155781273204,9.811452170154698,0.8091492387779652,0.5761972965973606
0.2503171790905711,-0.03144437902976294,9.847214384218276,sitting,9.850445602503257,0.25228444090040203,0.7324848235911755,0.4033534596179044,9.807694901716904,0.7902328638861612,0.5688505147292525
1.199457942575123,1.1376378948509036,10.501089214459695,jogging,10.630418337292708,1.6531543593407552,0.7821725405173371,0.4921674760969362,9.807733929601778,0.8036508889636622,0.6100037271330645
-0.2521604801462043,0.09165676137777012,9.891019253758946,sitting,9.894657535654481,0.2683018256624911,0.7111932392029056,0.38248093215763784,9.848105192218428,0.8645378168576099,0.5680501224815666
0.343523701381403,0.03604356993359831,9.23077331499542,jogging,9.237233550429254,0.3454094271214055,0.7669413239620118,0.35651353254145596,9.783312752477551,0.8147958091081657,0.5782998434768309
1.9478108817485433,0.7294114428974798,10.212548007435467,jogging,10.422194830661244,2.079905835389627,0.9545497766990341,0.4333295634639008,9.819167306242523,0.8520687008068452,0.5709339173873931
0.03918812622455846,0.19172879686057542,9.70715167957285,sitting,9.709124026966418,0.19569272031068433,0.7351837792900381,0.37408558827199406,9.626710668072244,0.7642582152984648,0.561137168123839
0.38177405200134046,0.32653364325896117,9.295204469832825,walking,9.308770154159014,0.5023700299196726,0.748688438941433,0.4619366184082686,9.627029387257057,0.7558145476252189,0.459633448328641
-0.03235149467844572,-0.068015236575182,9.875386216155716,sitting,9.875673425638002,0.07531727301427925,0.5516310847643807,0.33380199146638384,9.594045566931921,0.6623206539848006,0.4018618803274223
0.14086194934459192,-0.0004262937643876164,9.702380951739732,sitting,9.703403444316923,0.14086259439443793,0.4944992431329093,0.31541020131208747,9.755682550976575,0.671510120382849,0.4135442329553626
-0.8119335537763045,0.3617878250678901,8.690091270761535,jogging,8.735434323505672,0.8888906153825528,0.3206488303765177,0.2774914024877846,9.695285876293047,0.7656641223219898,0.38670056379039275
0.7757828053188696,0.8075349890997606,9.85599046850069,walking,9.919400175152992,1.1197998569605043,0.37319539299934756,0.36138933930073697,9.696163484721286,0.7782289662674541,0.40289951641048116
0.7787798969183449,0.46639607473558264,10.246562961309975,jogging,10.286694121361943,0.9077573609577105,0.33112758843366974,0.2942651572892049,9.670710859406316,0.7389824011298984,0.302647616746309
0.059865223746752405,-0.4297227997671577,8.157861072277809,jogging,8.169390601767038,0.4338727113497384,0.3623301588229654,0.24212720117471206,9.497395041258201,0.7179041407826828,0.37716559205780925
0.0009395354575849457,-0.049736953314026285,9.849445029921169,sitting,9.849570652809728,0.049745826476576806,0.3280717422305836,0.23354914884994962,9.559262212750777,0.7270175228605829,0.38329903415884037
0.11049972018044146,-0.14771644163123818,9.51014418687563,sitting,9.51193317840556,0.18447312890540687,0.1443406260737734,0.1458363603970778,9.489021830694792,0.45254855861828436,0.35665296695325027
-0.06866045318482009,-0.12026715077719921,9.90457739311893,sitting,9.905545506516548,0.13848626425610028,0.13355576813283557,0.11463676563330034,9.508764402049401,0.45659988089501846,0.36572346343005746
-0.057753426401921285,-0.03700224658372443,9.496991537821517,sitting,9.497239224846709,0.06859026544200632,0.08960302029250936,0.07828317664903178,9.52894310884827,0.4511737177308715,0.36034877152986855
0.04845550577755253,-0.4849410322696002,9.684774168888906,jogging,9.697028743032407,0.4873558667122659,0.0976837203381092,0.03659059707958997,9.509881904121588,0.44946718446975925,0.40098444222747626
1.7017513061358274,0.29217195877693514,10.724914576658863,walking,10.863015908948137,1.7266505035561035,0.25377265601723276,0.06585042233372225,9.612135266613503,0.678701182092918,0.40858657652892083
1.6760036247941505,1.3401952704711264,11.188494864120873,jogging,11.392432963935994,2.145952355788988,0.5025663738742783,0.1636911668740459,9.861975625949437,0.7002972157649466,0.5718522193900432
1.2938120690773323,0.9634745223017764,11.15309150058178,jogging,11.269147387693726,1.6131437707826306,0.5543693002501244,0.17928512019424744,9.991685729157545,0.7407453313782649,0.5930918499029151
1.3813457274013696,0.3882879039896662,10.753282802860557,jogging,10.848593206185367,1.4348810107443428,0.6146258832984269,0.1714743031196558,10.042357713312603,0.7842586131562967,0.5893933657748098
1.2879152377064396,0.8623654744721215,9.18779828861028,jogging,9.317619720898033,1.549967700011185,0.7374308846943957,0.30068313054358375,10.14535143494585,0.7838865161972567,0.5845610223696686
-0.010205639062884797,-0.06284426891553463,9.894785050873672,sitting,9.89498988176326,0.06366755220840449,0.7363163672423487,0.29937239898343293,10.149885437041101,0.7850570450006626,0.5854480767070027
-0.07511672196238789,0.06793813730119062,9.859850713886578,sitting,9.86037089629736,0.10128234011085109,0.7177547230280659,0.32093785687667575,10.184856089742194,0.8034759839668659,0.5709414983668193
0.2991504116153021,0.939390426120793,13.26239534246382,jogging,13.298987764535429,0.9858728830112987,0.754535809508078,0.426903614566475,10.520637884676685,0.7712482788190856,0.5782446670373478
0.005990977407950356,-0.16795027929134035,9.970053274714777,sitting,9.971469575181743,0.16805709781006514,0.7609102498890652,0.4138088112957134,10.56794405836601,0.7640182077687436,0.5912538299538153
3.0495746708701508,1.6367948301569903,10.555749245995873,jogging,11.108683321329485,3.461069630799334,1.061022166398325,0.6259823975383725,10.655041566076708,1.0046135708911794,0.6131881202141862
0.3947151817710765,0.2267097003816841,9.444565394554653,walking,9.45552816372449,0.45518937044677016,0.9303185539618498,0.6194361716988473,10.527006647866285,0.996986162033879,0.6174821440412057
0.637544348115608,0.4177942506160938,9.938005319429822,walking,9.967194417722444,0.7622432890239303,0.8264726262939958,0.5271960697133441,10.401957693397183,0.9642304593934049,0.5644703717861425
0.6569498709830909,0.2883104531696967,9.817705618430391,walking,9.843883870736757,0.7174301710909681,0.7627864064845715,0.45967966280013606,10.268419105182042,0.9508730417212016,0.5465837338712012
-0.048941423449442044,-0.11151262626634878,9.847825610507064,sitting,9.848578556507782,0.12177983719021789,0.6197576913994903,0.40969960977453457,10.177873385946693,0.9550538190918068,0.5759019779684538
1.6272481656214275,0.0657676402534107,9.813647379160741,jogging,9.947860918686555,1.6285766715211178,0.6536909841909891,0.33003982635266355,10.24045829500174,0.9869277831072486,0.5612380954144415
0.11971785314619128,0.1862869121400177,9.777773219975266,sitting,9.780280380401274,0.22143888095046835,0.6666833334118968,0.3549529444582188,10.228757111911898,0.9780319586091699,0.5472145781838512
0.766189365738609,0.4895290997114168,10.06740027427853,walking,10.10837440769675,0.9092221310742508,0.7508139421819965,0.3971120406992414,10.249512067951093,0.9426778136743008,0.5388210895886109
0.4632600983217595,1.019086340785033,8.807172102787883,jogging,8.878030600127309,1.1194404355175467,0.7672249108526422,0.40508163216566545,9.8039897439835,0.9353411268914777,0.5482400668461774
0.42066391147999566,0.9484545662881099,10.31943953048117,walking,10.371468382731146,1.0375568373512924,0.8086922042598467,0.5167221167236105,9.83892836956014,0.9065930897550745,0.5320147381129948
0.0023104346000731033,-0.10867108113847274,9.708871863511893,sitting,9.709480295261779,0.10869563921264616,0.503965780632839,0.3421755255940641,9.754240631311742,0.4827369504810808,0.3914709834471408
-0.05746018581833911,-0.05719285461984328,9.631753064520021,sitting,9.632094257816659,0.08107216275544021,0.45874824387389734,0.3137852700939114,9.772959398308279,0.5142558632935863,0.410602329670653
1.4946985754587758,0.7857282371202716,10.872741604067764,jogging,11.003090596869258,1.6886363415746517,0.5444636666082141,0.3505786687443292,9.866433026772071,0.609907601568564,0.4366187266855506
-0.09721622179433251,0.06879020828923982,9.705620058954452,sitting,9.706350695050919,0.11909276441682698,0.4690470573304718,0.32862664425628346,9.855224470824478,0.6403218657238099,0.4455248720349923
0.5570613211760822,0.07757451240786065,9.363249689544741,walking,9.380126857846085,0.5624367702468959,0.5296473317930241,0.34753535812370445,9.806766878728245,0.6139869105812907,0.42845470462846796
0.7222976905464946,0.18851500136102498,10.391253424077481,walking,10.418032423778923,0.7464930404946498,0.43915228428553094,0.35981009423446586,9.86452748321992,0.4880018637668898,0.42118201935210037
2.1958995420864524,0.9680063234902916,10.043633069258602,jogging,10.326353483740407,2.3997939580832104,0.6467704531795571,0.43798203536949326,9.891113468148253,0.7223712421066453,0.45646375973689274
0.0009226992995468902,0.11116314741410516,9.838507875919362,sitting,9.83913590317993,0.11116697673773206,0.5702437865356508,0.40014544013976205,9.868224228312338,0.7483817386158448,0.46726983423506646
1.6978837284456583,1.0351667925979127,10.898317117857726,jogging,11.07825326688322,1.9885621548792434,0.6937061495480408,0.4017534853210501,10.07733872981932,0.8265304873374132,0.46965806750677047
-0.02324718977435783,0.0027418248162835723,8.766592685861154,walking,8.766623937938139,0.02340831979720449,0.6493150394226054,0.30718221117386746,9.922054045357319,0.854279302420639,0.44172632021268443
0.02520037612019285,-0.05461661042180197,9.688363494956665,sitting,9.68855021370584,0.060150088034566285,0.6516040335746174,0.31258765824553447,9.920003208501797,0.852381624120446,0.43637032128919373
0.09346547073366236,-0.015914947153772795,9.702207176896493,sitting,9.702670415055033,0.09481075762998878,0.6666965992298175,0.3167154489921415,9.927048619739445,0.839673126279913,0.43266325925892235
0.6401000555177991,-0.15574176596037692,9.908098790851781,walking,9.929975086978661,0.6587743003019672,0.5812367472357198,0.22256844868407671,9.830584338417847,0.7879329407055442,0.4215558103390979
0.7712720463725059,0.08448292922414481,8.90427142721535,walking,8.938011388690978,0.7758852588146812,0.6680855740524037,0.22413772077756716,9.750449475243936,0.7518815412001747,0.42094852527653864
0.1295207072669644,0.019516204714181803,9.77961904274543,sitting,9.780496159044613,0.13098280748777885,0.6253315126614919,0.21833189000819928,9.792086410564005,0.7708133728105832,0.42358667779801906
-0.15231244174793848,0.4772481079405754,9.049180769778932,walking,9.063036877370681,0.5009639073267437,0.5378704994320486,0.24720520066615434,9.65787914513415,0.8073421891309883,0.43110232645161645
1.740988403593767,0.8648022714443655,10.692708912961193,jogging,10.867978077244315,1.9439453670675284,0.49237938558278005,0.23688479546156174,9.72278672950441,0.7105514809556092,0.4127751228482357
0.20836452583986392,-0.4847391041684133,10.839711511626145,jogging,10.852545020870396,0.52762465327017,0.5131235682368117,0.1772945703033099,9.822907093075088,0.6975179980725579,0.47174320801407266
-0.05924170100753007,-0.062143716886608635,8.99217518361927,walking,8.992585054008943,0.08585697809001058,0.3374110252914929,0.06756351935485777,9.632292899651242,0.5767705691994863,0.365733934397963
0.7229089936295712,0.5671139100937174,10.473937291689646,walking,10.514160831485285,0.9188120591787551,0.41202664363188585,0.12400072788260115,9.80302736023409,0.5731819602444858,0.3968415514580062
1.27181790844326,0.879568916977786,8.63750724971445,jogging,8.77483297623494,1.5463383432969848,0.5366883968641926,0.21741928062255997,9.69794173570987,0.6138257956426316,0.4557116324487229
-0.016727347132036368,0.5242446673730564,9.858775360870608,walking,9.872718161252276,0.5245114635650608,0.5256691150776226,0.2714352420752429,9.713598554107282,0.6235781287867855,0.45699228570291306
0.9281970705241602,0.31751673541391207,10.846067690812859,jogging,10.890342098974306,0.9810028944898894,0.5544788165782588,0.31876109221267174,9.807395444103388,0.6359840555383837,0.4316407314795116
0.03871005783748474,0.09266438571178187,9.50742579975429,walking,9.507956168114713,0.10042488216136128,0.48122261772475666,0.3195792378614355,9.867710881357283,0.6502678825252789,0.431154813529092
0.00490947313056715,-0.0599355705052997,9.76730736406347,sitting,9.76749248884414,0.06013630798623667,0.46876149431111697,0.3116340603394873,9.866479713489086,0.6588931841708685,0.43797674551577537
0.8396257575353672,0.11341814732488587,9.137168684798652,jogging,9.17636565658347,0.8472514909160377,0.5679553142394476,0.2752510642779184,9.875278504991059,0.6289917312551953,0.43780221027544025
-0.020731609600824458,0.05487004763949003,9.902512201034005,sitting,9.902685919153043,0.05865596103211422,0.3917833129199883,0.19425784189743084,9.796258833798339,0.496751145721211,0.38879230728071656
0.050112927606457636,-0.014114967234280568,9.706284112583358,sitting,9.706423739565537,0.052062825637059676,0.3759581530966477,0.2413202555908441,9.682916093894061,0.5056840417680712,0.3198382908766668
0.7153800758759867,0.6659875114584868,9.017709810961401,walking,9.070523593105776,0.9773985974918322,0.45342033078499944,0.3141333784253536,9.685469556628274,0.4907196064985401,0.32590100368796215
0.7904082411527015,0.5884589487214406,8.994027829712639,walking,9.047848679308132,0.9854080992220685,0.4601702555373124,0.31626788228812597,9.537478610430574,0.49528136642040305,0.32780634287996824
0.014341763068147615,-0.01035878946470647,10.12874573825825,sitting,10.128761188860745,0.01769154281223084,0.3344226409998012,0.2272751116438767,9.686602459284952,0.42026436044209214,0.274325998411368
-0.0007062904550829716,0.017866977521907204,9.830229440867376,sitting,9.83024570332948,0.01788093207792252,0.33602474666749654,0.1766373426587618,9.68374786728463,0.41880499480036515,0.25976737323316046
2.247674832177593,0.4871242439227909,10.632083270280543,jogging,10.877983583661143,2.299854817205191,0.46797252283283985,0.19359809350964968,9.6623494252314,0.7232806774203501,0.27507377507928565
1.3962933697601159,0.6869032678260204,10.416864743176163,walking,10.53245186798462,1.5561077320629588,0.603730854025103,0.25302198172107354,9.753293319573585,0.760221059303116,0.31248833442460366
-0.06842421805152436,-0.09469827656173482,9.787987550262637,sitting,9.788684790169519,0.11683166180332011,0.5963974849068937,0.24954571111543,9.755361338193502,0.766963141425484,0.31652395667006694
0.9949271082723742,0.32568246155412267,9.688646096556175,walking,9.745040389903593,1.0468758362571853,0.6119276199805945,0.2707721425383537,9.810509079369254,0.7739757504015764,0.313483512511506
-0.020574581894059002,-0.16085244285353698,8.607152483288164,walking,8.608679962245413,0.1621629482713783,0.6119433227512711,0.249199893489051,9.68097310759467,0.7739614899997078,0.3365642851573854
-0.02736276103932682,0.03683520038409712,9.799772824557794,sitting,9.79988025261638,0.045886301649096656,0.6041957538866927,0.2542949102508888,9.690321978792113,0.7805700281527234,0.3324963019733028
0.6913789674901886,0.15808723918523684,10.543236235328486,walking,10.567063299035574,0.7092224276494713,0.6017956430481128,0.2035048830235638,9.842874621228821,0.7802269950049957,0.29980604227447716
0.4981790153905622,0.14539274781043876,9.046151527956166,walking,9.061025264793994,0.5189618314398274,0.5725727204718989,0.15919826293246359,9.848086991053176,0.777846698330657,0.2676045151133173
-0.02005711806557686,-0.08001752986641042,9.969343510277444,sitting,9.969684805397913,0.08249298801121446,0.5691328323585264,0.15223238889229318,9.832146768255095,0.7806606440383866,0.27335344561709535
0.07831556560131749,-0.022467990162987013,9.751447586893823,sitting,9.751787947773208,0.08147477153952838,0.5770350179641665,0.14819889212380377,9.824268582857739,0.7746282182396657,0.275842633032386
0.151842203065218,-0.2477506118629017,9.857317575588878,sitting,9.861599576454296,0.29057945610476504,0.36745175505292893,0.0747114065452345,9.746792013388573,0.5110925104909902,0.2733951015640191
-0.007686540700366203,-0.12814909728688245,9.717974231720783,sitting,9.718822173619214,0.1283794144065989,0.22705376400688074,-0.006793829966055778,9.676902962243036,0.3705907749660718,0.17405184643974994
0.6869894471230475,0.22047408970554366,9.915048974699225,walking,9.941265487621486,0.721500744760474,0.3025951305243379,0.02472340666067207,9.689609104686692,0.3805268740076873,0.18458258036761066
0.3008197733021926,1.2168464537802162,9.839091253320541,jogging,9.918615050462229,1.2534782918292084,0.2331843970273198,0.11383980588328142,9.70465362036313,0.2935808428910133,0.41603956027491235
1.3821528085083454,0.8621790263547778,9.76740133365314,jogging,9.902314268503233,1.6290178205144288,0.37345713606756015,0.21614295280411291,9.820678505399629,0.4515009265196442,0.46400391043663824
1.1687364592095804,0.38471402910419056,9.25243354050909,walking,9.333888590336446,1.2304266720432093,0.49306705809245094,0.25093083567612223,9.765944576994759,0.4902862040873362,0.46210383992300896
-0.04050236537290025,0.01381691956069478,8.75702483005362,walking,8.757129393987654,0.04279426207970666,0.419878924806142,0.23650380371366805,9.58732343646727,0.5115584842174993,0.4675445686584428
0.5283931780012985,0.8556778359671146,10.235264109630583,walking,10.284552265578487,1.0056758471414515,0.42290034106721563,0.3075323125293356,9.706234694634713,0.5121612044803533,0.5046457591663792
1.4543356881104486,1.520809875953357,11.244361625887306,jogging,11.439563949130054,2.1042706509641187,0.5703396216848182,0.4676150531113123,9.833736506195699,0.5784121986775853,0.6107908177515349
0.14435278939439566,0.4328360505433353,9.612032071287288,walking,9.622855361789,0.45627269746928256,0.576943344064126,0.5131454571819446,9.819794954635046,0.5725175457999019,0.5866938270429354
0.8229537215171321,0.06587937418248452,8.997850212399465,walking,9.035646150911326,0.82558640959113,0.6440544959093175,0.5445084557864832,9.733848218316105,0.5562531518966678,0.5486482950054686
0.02687757891486415,-0.01129811231066105,9.556651908005936,sitting,9.556696382243375,0.02915564422387303,0.6475109078708405,0.5561935542841054,9.717715985944618,0.5518433373892381,0.5337729341079569
0.6180538367367965,0.5059174077751262,10.051639924433406,walking,10.083323268598434,0.7987133206570289,0.6406173468322154,0.5847378860910636,9.731375080918038,0.5517259357213515,0.5213118335191387
-0.025922181300409255,0.02753962341432087,10.060685714275289,sitting,10.060756802137902,0.03782050159865542,0.6079431513719552,0.4658072030544741,9.753534527013512,0.5828807858316052,0.4961359400196041
0.003162197391024777,0.02483054757359842,10.006434795595336,sitting,10.006466103179793,0.025031092368183582,0.47004409026022315,0.3820723551763562,9.777437873207733,0.5409814119793864,0.49245331190921615
-0.0836194850704171,-0.05717358227493337,9.670218641922164,sitting,9.670749175703634,0.10129677583018268,0.34480849583222334,0.33788359403844376,9.81921638334904,0.5050281378373769,0.51164179404372
0.07401918273415697,-0.5072362497308518,8.30845866109059,jogging,8.324256890287858,0.5126084787180676,0.35626065064292906,0.2857782771092891,9.774359766452736,0.4965471504852061,0.5713584814587057
-0.108318844666605,-0.2799964302593586,9.976913670221064,sitting,9.981429624863956,0.30021820908780994,0.29258944837613876,0.17221085048664175,9.748524722511785,0.5125855954972137,0.558210885819649
1.0951609836710858,0.31717492612176823,9.847369782488851,walking,9.913156366515677,1.1401655642562485,0.2566719779322025,0.051847355503482885,9.608825538171939,0.42768914351158643,0.30944683261109984
1.9550737077222293,2.0690984943605844,10.059395766374328,jogging,10.454421311892004,2.846661515177381,0.4377440697649858,0.2154735998852078,9.653561907680643,0.6823443121191358,0.7085376468383315
1.6549250102991175,1.0170693898370882,10.402017921248223,jogging,10.58183272252148,1.9424744357280794,0.5209411986431844,0.3105926014506682,9.79397867856552,0.7784792287383008,0.7489200748338076
0.3972717199986079,0.23259114670393377,8.654241143120373,walking,8.666476401878281,0.4603514538216461,0.5579806127515587,0.3349815273521276,9.703737602076963,0.7609749071514242,0.7412042681918425
0.028991117403766295,-0.06422324784439894,9.852955887262251,sitting,9.85320784449348,0.07046353987703183,0.49907434081825575,0.2779674617901752,9.683869198359847,0.7784076973072516,0.7484868621482605
0.5850863910176134,-0.23552919985892679,9.27749358043304,jogging,9.298907851135878,0.6307139517564218,0.560175198050058,0.25166057946285036,9.605549984975621,0.7562855476341658,0.7627535967350483
1.1158111572351066,1.3967658200635522,11.185912034174315,jogging,11.327869055166286,1.7877330043124884,0.6714400940344661,0.3888541067118457,9.72349770883352,0.7470222019231412,0.8371732167428659
0.052252076644239004,-0.07967812326691753,9.868874197396785,sitting,9.869334162286988,0.09528317186667083,0.6850272502059317,0.38660365261264734,9.743363264380982,0.7328644149460696,0.8385345722173653
-0.029815252619990032,0.03625430910929613,9.778123335054172,sitting,9.778236000411766,0.04693958050287854,0.674643806670517,0.4409527084966621,9.89032973177734,0.7431466912604736,0.7903950314699039
-0.06713075913710861,0.04775888195530049,9.930813529330068,sitting,9.931155260288357,0.08238597955929648,0.6787626152234667,0.47372823971812805,9.885719717688241,0.7384241772430581,0.7635159986710233
-0.08156557220211935,0.16379568866205452,7.883862677847958,jogging,7.885985841564573,0.18298079186880747,0.5610899596361463,0.4583903159721566,9.689369007224151,0.7581904775664595,0.768534453011939
-0.01241656849365047,0.3533505174478937,9.466865141677618,walking,9.473465383378178,0.3535686062899982,0.3643409320145582,0.28681551828088764,9.63011594475448,0.5936976832278523,0.520478440210532
0.382112455353467,0.8626128851435224,10.062808357274722,walking,10.106939346478235,0.9434568978771034,0.23705967651999318,0.27136986781153105,9.59619498835713,0.3865798516834708,0.4982153115643882
-6.084823222894505e-05,0.051360929441522186,9.91205882417362,sitting,9.91219189093178,0.0513609654855162,0.1973264196969095,0.2532468460852899,9.721976756462455,0.38869679170759736,0.5030553509066
0.1957695890998438,0.3886958656576649,9.624624377274937,walking,9.634459227773537,0.43521283068825434,0.21400426686651725,0.2985387574354963,9.699143605463725,0.3842237349969806,0.4915539733796286
0.7542131632102603,1.4134567233037854,12.72265792894702,jogging,12.823132307716817,1.602091571731248,0.23091694408578195,0.46343734975176754,10.043660040315121,0.40550575131316285,0.5637696346751799
0.5739509637961767,0.5000491461269584,9.61782807905567,walking,9.647905773568507,0.7612285185047,0.17673092474188895,0.3737656823581081,9.886851644803256,0.2953693643225221,0.4607185353871789
0.7061340717430173,-0.5694303410397707,8.786284364428106,jogging,8.832987556493377,0.9071252617875011,0.24211912425176677,0.3247904605808228,9.778592661506389,0.3345318610473382,0.5344130580840055
0.9306944699479401,0.5847462372797098,10.30656451297043,walking,10.36500807613896,1.0991452853942723,0.3381700965085598,0.37963965339786415,9.831436779298015,0.3822642923951642,0.5296346125671714
1.1984698359370285,0.057677630587414486,9.618290239399792,jogging,9.692840852198824,1.1998569317719119,0.46473015601597345,0.38063152826107555,9.800184450304988,0.43853370257050384,0.5289528717700496
1.1419733822776719,0.6681389388898269,9.032781772995428,jogging,9.129165318146558,1.323069479464903,0.5870840514639527,0.43106585328385283,9.915076359819734,0.4398637266430519,0.5300237713129109
0.11529132562048097,-0.14108022850909593,9.6505716131606,sitting,9.652291343581622,0.18219692818350836,0.5998548408753658,0.3816227786881538,9.933447006968033,0.4220159731513827,0.5602769228637465
-0.005247385606304944,-0.00041425849441544574,10.05170834006789,sitting,10.051709718274607,0.005263712169320398,0.5611188567793886,0.29532006432436003,9.932337005247351,0.4602667738214012,0.5441927051298321
-0.14822314236773088,-0.01026485734506316,9.798158519974674,sitting,9.799284966250445,0.14857815192577645,0.5463026273658383,0.2891574856457015,9.920946974827455,0.4822007110521054,0.547600585782896
0.2632386204677499,0.03966279392214572,9.804123145004123,sitting,9.807736657911091,0.26620989562274855,0.553049530502629,0.2542541784721496,9.938896851600372,0.4771971809684643,0.551659608971395
1.8936637489273376,0.7616659382985089,9.196624671971895,jogging,9.420403534492982,2.0411020051838875,0.6669945890743367,0.18907509997162192,9.58629352590286,0.6391312904167051,0.4229772713697267
0.4774246092557965,0.45959127872037725,9.89831219953574,walking,9.920470896105535,0.6626902753163664,0.6573419536202987,0.18502931323096383,9.614341937950869,0.6414174567869126,0.41985426182287916
-0.033577861774042206,0.08153241668090143,9.58231711756101,sitting,9.582722804572501,0.08817600450885046,0.5833707602685927,0.25012558900303106,9.69394521326416,0.6768406451951607,0.3309288941779824
-0.021600142157311337,-0.017963037272551535,9.784317291714721,sitting,9.784357623359695,0.028093359522690306,0.48814129905806763,0.1898546615478049,9.641720491138587,0.6894191485547763,0.31783994632848594
0.7414882322545593,0.5132621128398602,10.187403710876701,walking,10.2272399582406,0.9017997532982744,0.4424431386898206,0.23541310977304947,9.698631838286278,0.6511889707971767,0.3292358110212951
0.18075241664686942,0.03896908538624114,8.557217116481668,walking,8.559214613756707,0.18490545081074172,0.34632104212674036,0.1724961244226909,9.651075372634903,0.6058207086280598,0.2957700147085682
-0.09910911353316137,-0.09413814861392653,9.700536173926192,sitting,9.701499196982928,0.13669165084154478,0.32488099821137617,0.17719033241220786,9.656071828711461,0.6185651064138282,0.290566967794505
0.013734132456510457,-0.03475002997059105,9.67562847718349,sitting,9.67570062680018,0.037365638992126846,0.32677915001765767,0.17375675526459028,9.618463842423022,0.6174676519029569,0.29309078929672455
0.43874075834695714,1.307735308506964,11.192084559410223,jogging,11.276764690066889,1.3793712662480204,0.38547554008912654,0.305556771849793,9.757856446366578,0.5947784155290335,0.4535600975153012
1.5977548898724583,0.3798976817508697,10.475758135203538,walking,10.603709324759622,1.642298065733208,0.5189271670295973,0.3395802606326654,9.825019945386519,0.7039916557487687,0.4440597862675644
-0.043099620021981304,0.011198193262125773,10.123582383117162,sitting,10.123680321135122,0.0445306274195086,0.3252508301346655,0.26453348612902705,9.917715716501046,0.5282367385200067,0.4279226466009782
-0.09242684025950716,0.2116012056830995,9.799049878930212,sitting,9.801770060596663,0.2309064551867224,0.2682656851831351,0.2397344788252993,9.907789484440492,0.5405893057213595,0.4225142337505019
-0.019298136776068963,-0.13853605184444945,9.622122150614171,sitting,9.623138746639974,0.13987371355503453,0.2696936576829324,0.2177276319727642,9.911769987745808,0.5397215548521507,0.4371475962695854
0.038124465516209884,-0.29733061712925574,9.569446099830811,sitting,9.574140046412548,0.29976485910353257,0.27566611845028455,0.18979087398709377,9.890282868557417,0.5364605940801463,0.4620981704560818
0.5966562186004164,-0.4710374210636708,10.361729036587452,jogging,10.389576676789886,0.760180830616546,0.26118291708487024,0.0913609205967407,9.907715401128492,0.5243044590984655,0.4895562966356155
0.37207696851003996,0.04071051562209835,9.524363319951842,walking,9.531715232161623,0.37429749742395874,0.28031537227118736,0.09153506362032642,10.00443002147551,0.5245341223198847,0.48953589858713836
0.8041554443478132,0.172214681314745,8.201810754522588,jogging,8.24293779717747,0.822389126347478,0.3706418280592848,0.11817034661319356,9.85455747953515,0.5296834698230406,0.48554080272739675
1.5498277685237234,0.38116001327488735,11.262705835248903,jogging,11.375227109783639,1.5960103595550175,0.5242511916660061,0.1597613509377414,10.01326521534169,0.6282443983891303,0.48878871222731585
-0.021224430983993056,-0.06849961501263928,9.88582596965562,sitting,9.88608606962558,0.07171243774600108,0.47825467273291106,0.022137858585781073,9.88263935636623,0.6516043482670932,0.27790610957569767
-0.046285628571437976,0.14545384608877576,9.65747712049222,sitting,9.658683321943265,0.1526406916725366,0.31385062088852145,-0.0013065249804283196,9.800811254895098,0.5346721642499667,0.2531588438884051
0.10370053243691586,0.07229969346243233,10.00566482208679,sitting,10.006463390131776,0.1264161623466775,0.32853063613441114,0.004803625039602336,9.789019498792062,0.525723149124417,0.2542292863260522
0.45230509775938815,0.1383146117320905,9.13156792920551,walking,9.143809035570042,0.4729807958868189,0.38300382993630067,-0.002525034355498565,9.722271303819591,0.5050748126891125,0.2485995490196563
0.06992124386719865,-0.01664855842815459,9.661667108429793,sitting,9.661934457910371,0.07187596845728023,0.39192576800062745,0.00966371498613092,9.726225799601153,0.4979159814452544,0.24413803993818037
-0.046385442950594574,-0.00042019153911560935,9.975308419134686,sitting,9.975416274158086,0.04638734610486364,0.38347477715394696,0.03935475754514493,9.76681203153154,0.5052513219236396,0.21946172231194688
1.153231126812626,0.3446473656009595,10.747870539077182,jogging,10.815056401296687,1.203629444000603,0.43913226797516797,0.12092323621160797,9.805426181780513,0.5591273987968299,0.14893707152500127
0.05134624852086389,0.17374150061392554,11.267401258178104,jogging,11.268857690958132,0.1811699375524124,0.40705919597625034,0.13422633471079068,9.979729975603139,0.5724417289113523,0.14690368185511624
0.572484593521656,0.3803457108578779,9.193612985913042,walking,9.219269016811287,0.6873146801776027,0.3838921108936346,0.155039437665104,10.078910198742184,0.5591182334077667,0.16634168515263448
-0.5972768512026784,0.3956325689102471,8.324050849058352,jogging,8.354824193498878,0.716424990187464,0.16918164892099447,0.15648669322863995,9.785044700123128,0.4661663437019503,0.1685756014296601
-0.05037223368294537,0.03363229693212808,9.789244048057256,sitting,9.789431419941996,0.06056808832330841,0.16626686865109924,0.16669988442311667,9.775386507963294,0.4675781589644745,0.15605941590231148
1.3577494881114351,0.8321558791845103,9.39825554154982,jogging,9.532217701248756,1.5924720028082784,0.30667038031938654,0.23537008773269014,9.749464350069054,0.5911368350877563,0.2612821357628411
1.3227111213360916,0.18424751414844864,9.87239791047757,walking,9.962316616117857,1.3354818819347807,0.42857143920930413,0.24656486980129175,9.736137658908131,0.6656265358333563,0.25586096980063855
-0.0051954770900777955,0.13250046549456387,9.739991384917621,sitting,9.740893980770347,0.1326022863244433,0.38282138172435753,0.24598345517753914,9.796980004479343,0.6793941696981521,0.2561407408988839
-0.023860553171462743,-0.0456699144693513,9.805490548484462,sitting,9.805625934304418,0.05152734308390123,0.3734432020204914,0.24308131957341944,9.81136234848481,0.6848188842259741,0.25958826413277797
0.1329794365205076,-0.1894581150472303,9.867931149019235,sitting,9.87064552446691,0.23146902145764833,0.39137968996760164,0.224177527222608,9.800624621473265,0.6748779060865567,0.28493633690794423
-0.05417732360116019,0.14238989372468513,9.918602931503877,sitting,9.919772889389394,0.1523484959804722,0.270638844926223,0.20395178003498052,9.717697860715933,0.629943702689058,0.28260374129708027
0.8029199369793979,0.07266858670007531,8.574898570265091,walking,8.61271424343257,0.8062016799114143,0.34579621377207637,0.1938444886435955,9.448447591924632,0.645515232131082,0.2855958515557667
0.8746190794840396,1.156987395012361,10.147308201580664,jogging,10.25043619092774,1.450371802819883,0.3760096623683148,0.2715086570590438,9.543817113491395,0.6641073132195119,0.41721686813097736
0.5045277236826105,-0.014556458431331049,9.850509989267136,walking,9.863432828538858,0.5047376689394398,0.48619011985684357,0.230489754324886,9.696463027512273,0.5693251008095012,0.42377014687856507
0.7652239191421669,-0.027901205647262964,10.672966424598876,walking,10.700399918896432,0.7657324099865883,0.5677497351393548,0.22433640406694694,9.784835265166434,0.541666218170365,0.42737761457255463
1.0086930137286216,0.3931119087090414,9.933255970088478,walking,9.99207549691315,1.082588827170221,0.5328440877010735,0.18043200701940001,9.838335308020302,0.4942747717806269,0.37765788821416735
0.8811396097670078,0.9391998897960223,9.647504425977608,jogging,9.733079938752725,1.2878289656989452,0.4886869365441651,0.25592724458415733,9.815845959570305,0.43162345344241076,0.4475052026590846
2.056177911761575,0.7828225698689862,10.206472320587235,jogging,10.44091739319998,2.2001542629353232,0.6948242754293303,0.3209594550215996,9.862494053137265,0.6204721628743926,0.47404181575155857
0.5692468924444012,0.6073270006606318,9.4553570801737,walking,9.491926338940898,0.8323990090629894,0.7541350199909168,0.3862591465345979,9.82748070630619,0.5704730489466258,0.4627681885775804
0.0509513563929686,0.1645354952270745,9.446612161260152,sitting,9.448182327578998,0.17224392560523566,0.745932211978163,0.4216585075620284,9.785348807530282,0.5808916174919534,0.42590680147561916
-0.1487374446403977,-0.007282243259034208,9.58560102935389,sitting,9.58675768716699,0.1489156086682626,0.7364761998742392,0.40669129386365643,9.752048617315284,0.5959381031758694,0.43923272318772105
0.757289044976388,0.860413219434292,9.342431300799644,jogging,9.412482149570296,1.1462101054425116,0.7319131106739383,0.4854657571370781,9.828801890368739,0.5955473851696741,0.44329156723971586
-0.09245295157217914,-0.3781401781476052,8.758788364842852,jogging,8.767434696802162,0.38927823286681507,0.6352059075683163,0.33195299982108156,9.689949906694958,0.6461666255322785,0.45065125183316906
-0.4590010414390574,-0.05061011069613061,9.988085761006365,walking,9.998754947920512,0.4617827837271696,0.5388530310561495,0.3283476345946016,9.703707483868879,0.733723764471845,0.45386423561032274
0.8758779065416615,0.6524426715750812,10.33132095914232,walking,10.388890042139883,1.0921737713660005,0.5499184297960991,0.39638202231683595,9.669542937323225,0.7383369164839353,0.4454426359114411
0.11064617708120716,-0.0611188502250286,9.738323990667004,sitting,9.739144327791639,0.12640447126393645,0.4601137461313575,0.35095894642342895,9.650049739381078,0.73091341645981,0.468382093960686
-0.022257492722485298,0.0422628617192566,9.744041199850413,sitting,9.744158273029296,0.04776552588418232,0.3697740358824082,0.26126524361575243,9.659703416768357,0.7289197793838627,0.4272980140767307
0.6642530428143544,-0.28058880827758226,9.297184476500005,walking,9.325105971209734,0.7210840340894829,0.23058154898768612,0.15492410580109556,9.568774632359634,0.45103963509715206,0.41523109075588605
0.684766239105183,0.19617866805641498,10.264020226266174,walking,10.288707502753676,0.7123137454932663,0.2421334836537643,0.11380927254067386,9.649640946968884,0.4620228250482782,0.38469049508261577
0.07032538280959473,0.10945624546137955,9.763489028780732,sitting,9.764355807950647,0.13010122650389508,0.24407088629542692,0.10830134756410437,9.68132863372094,0.46117190097403965,0.38427759350983937
1.4093338811012666,0.6447558864155714,10.286663699870848,jogging,10.402758394566709,1.5498168090092095,0.39987801886959334,0.17350516053156492,9.751434900772637,0.5651839952945048,0.41645754130593127
-0.0104009227724695,0.06598496121045651,9.900945530904789,sitting,9.901170870167022,0.06679965793673141,0.3231090220947076,0.09406233470918138,9.80728632378315,0.5633775048311079,0.3395320700816405
0.5777808076811057,0.9398478476454201,9.422485451925834,walking,9.486852835909406,1.1032427830937122,0.3901323980200361,0.22586113728848392,9.873656032491448,0.5481071014317358,0.3881876574625686
0.0021222650834258404,-0.05944977224267224,9.870780492181503,sitting,9.870959745853474,0.05948764097516333,0.4362447286722844,0.22497717113382976,9.861925505608962,0.4844301746073679,0.38889659677237093
0.5138855735198528,0.028924968706195958,10.034005420235541,walking,10.047197609771727,0.5146989765741549,0.4000454953701035,0.1626254008469412,9.832193951718285,0.4608808319607605,0.3617852871924537
-0.1375085233167085,0.1501879133796319,9.754155191782148,sitting,9.756280464843183,0.20362957376095833,0.37523002533031197,0.18375607720740725,9.833777071829797,0.4842812031439414,0.35333734158615976
0.13673159799237503,1.1918203607649343,10.508610642456265,jogging,10.576862906219805,1.1996379879877956,0.39112893440179797,0.298711827111975,9.910234016090383,0.4722419310768997,0.46994686673974456
-0.1314878664404412,-0.11250963270230291,9.928407214216328,sitting,9.929915270926267,0.17305339196868236,0.31155484347631845,0.31551974466950294,9.973356289862016,0.4878892355699661,0.4494860422934131
2.068105025413446,2.3237907153801545,11.096584779089985,jogging,11.524376575093287,3.110797596280954,0.4498887221071447,0.528280949401877,10.056612745144397,0.73764959550446,0.7734896405820386
-0.4864379872490756,0.6969879340129743,9.29780612311645,jogging,9.336573932586855,0.8499494664970418,0.3942123851012777,0.5870341182570364,10.010044454577969,0.7887249319715878,0.76034382444246
0.46174427347122055,0.5543849394121424,10.636672331755406,walking,10.661113859642503,0.7214918122407697,0.2994534243382731,0.5779970235566936,10.045045317766425,0.7057761261885136,0.7601185622332395
1.2194999166623357,0.4959738203137537,9.040010054833502,jogging,9.135368184625449,1.3164991747722683,0.4224435082817536,0.6209959094670232,9.958951770159297,0.7514644729392752,0.7398276428294059
0.047607234464825704,0.3122191991363439,10.476886068890835,walking,10.481645337331424,0.31582792321567904,0.3694261509601256,0.5582330446161157,10.064391831855797,0.7579617287773035,0.7363867640317386
-0.11097501278882743,-0.030821592816082995,9.859966987642528,sitting,9.860639655795545,0.11517562262562696,0.35811642317290027,0.5610958625587745,10.063310481401897,0.7648636679351368,0.7337696082969446
0.3742915754098342,0.15543014072658426,10.197042850230858,walking,10.205093610619812,0.40528102850868974,0.3441570233618984,0.5737463797608134,10.07961422440143,0.7629763964358388,0.7246086303265333
-0.12655574898000665,0.541223348051795,9.592026842258713,jogging,9.608117298029201,0.5558228765319801,0.3452523007955686,0.6128499232280296,10.063401389449087,0.7622156047067288,0.7096074115174683
0.11983685693734597,-0.22690772729524014,9.792262811417665,sitting,9.795624480188096,0.2566086299930557,0.34356282669006577,0.4709771144220122,9.991766606345227,0.7627476900530031,0.722694903477432
0.06506676287920862,-0.07418431610084755,9.954132907051275,sitting,9.954621988183579,0.09867621996676622,0.36321828962203073,0.47480964608215775,9.99433917562872,0.7515968092013161,0.7193506817402182
0.3488973065987323,0.7790120556220118,10.512788558264685,jogging,10.547384148884364,0.8535743162468528,0.1912975177405593,0.32033178010634356,9.93595955354619,0.4572962403626627,0.34838717773064604
0.14137696482912587,-0.13369779581405544,9.945274820393733,sitting,9.947178182778643,0.19458300745397258,0.2540790129483795,0.23726320712364052,10.00070642327392,0.3924042910234527,0.3476319493412246
2.61551325726392,0.2595644409550685,11.14788626439655,jogging,11.45354318374244,2.62836133321346,0.4694559113276494,0.20778115727793317,10.051827816538033,0.8469031752847094,0.32979303091058554
0.7970816846134889,0.8932134910397858,11.288765817787361,jogging,11.35206603404711,1.1971505972607452,0.42721408812276473,0.24750512435053634,10.27670339283342,0.8152800347714088,0.38727732335618836
0.9377538590555953,0.4371151686802523,9.945900251028752,walking,9.999569179433573,1.034626488576446,0.5162287505818417,0.2599947213049272,10.223604811047213,0.817818725425198,0.39158618801369977
0.2907621058005285,0.906491952384291,10.378118346966229,walking,10.421689435285629,0.9519822802484517,0.5564024624407773,0.3537260758249646,10.275419946979582,0.7930782912719989,0.42499497471808756
0.6147358606964504,0.3336979962406075,9.687117186640824,walking,9.712337201664347,0.6994673195519588,0.5804468909694389,0.3715528613763669,10.224427380620579,0.7905845692008457,0.4194557929408838
-0.0007480796740746616,0.1868527188073091,9.63942976354699,sitting,9.641240618535795,0.18685421629945118,0.5930276579000321,0.3361157984519183,10.229167672749407,0.7789999111087235,0.4184968703472824
0.6426396304110934,0.1874409470498422,9.514974576409388,walking,9.53849364380576,0.6694175103818606,0.6453079352474069,0.37755066588642655,10.201438849248579,0.7610509760465118,0.3747883718277625
-0.48574946198571234,-0.4279311898089479,9.113638614984595,jogging,9.136601471420816,0.647362064868425,0.5902263127609148,0.34217597851561654,10.11738942004191,0.8249618482517997,0.43415559854776875
-0.18419190789315432,-0.016932885711504732,9.897699642799282,sitting,9.899427842083647,0.1849685961233396,0.5369173913117261,0.26258148438226486,10.05588052849537,0.8588185644531457,0.4178251012212179
0.8350840526518973,0.302086215490995,9.725191401937236,walking,9.765652526119139,0.8880436118700414,0.6062881000940032,0.3061598855127699,10.03387218664972,0.8513030610923867,0.3939448526423797
-0.018045557057528472,-0.022776079919978515,9.39884393622419,walking,9.398888856106568,0.029058422979194243,0.3429322186618584,0.2779258334252652,9.858967953832485,0.49235214326808874,0.40753855158332114
0.6785793258300109,0.29431515911415984,9.487216562624287,walking,9.516005959459088,0.7396562136075822,0.3310819827835106,0.2180360002327026,9.678813028316178,0.48151366186324907,0.3465081090000517
-0.0830070495129237,0.18507811424357334,10.030702442279246,sitting,10.03275313980104,0.20284003214552632,0.2290058919266587,0.1928322947890347,9.687293247441227,0.44546135098733347,0.3378607699671923
0.6056643573616978,0.6810314284683032,10.911471783936102,walking,10.949468005888399,0.9113907616055453,0.26049611708277565,0.17028624239743595,9.740628591138215,0.4611656443596856,0.2889240848787443
1.2895192560571873,0.44561105835274484,8.994127976164645,jogging,9.097019686616933,1.3643420124985286,0.3279744566188493,0.18147754860864967,9.671329670090596,0.5579658816095566,0.29798248290177703
-0.06110011240896292,-0.046039233265665516,9.663260993512079,sitting,9.66356382829172,0.07650382170897259,0.3219392533453605,0.15818835340135223,9.673712793087105,0.562226684509882,0.3064950912227025
0.31776725200491207,-0.24865716600337306,10.167752416579372,walking,10.17575528486742,0.40349276654183325,0.28945201550474237,0.11457854209603069,9.738990577104103,0.5509087513165782,0.33184711581894893
0.02252697220150467,-0.055279091754518006,9.745132888204699,sitting,9.745315708135402,0.059692901267837405,0.34027965892346407,0.15184375190147367,9.802140004426114,0.491706916451792,0.2812176741805087
0.5668210563168008,0.5879923695738543,10.556341788878068,jogging,10.587888037761573,0.8167136196740996,0.41538095534445957,0.21233627743000957,9.868004219033992,0.4589637795284637,0.3049402544923683
0.6702180715585084,0.5397657631761129,9.395266784557961,walking,9.434594707540901,0.8605459560887481,0.3988943572351207,0.2361042321985214,9.835011757296064,0.4449597915679969,0.3215246472847178
0.06235257988258587,-0.00825135189113945,9.459024169617976,sitting,9.45923327603475,0.06289617656142274,0.40693417092913214,0.2375567050014053,9.841029780635443,0.4372487259038695,0.32025552783933436
0.16857017540349717,-0.001833806663370996,9.540466681078177,sitting,9.54195597137428,0.16858014972838417,0.3559332558864807,0.20794180842365223,9.846354792480833,0.4317526819798267,0.3280224081054354
1.8597434867325224,0.5984193808311676,10.306330639948527,jogging,10.48986190813493,1.9536508367153016,0.5502083095110253,0.24927593508241164,9.87391761224776,0.6118316816154826,0.35011953319923983
0.7770280127635389,0.641634189750302,9.850210686707888,walking,9.901621965042397,1.0077038087036194,0.5673446750512094,0.2453362112106115,9.76779150252494,0.6159434781028511,0.34490420045832376
1.2022186951432472,1.1416137769937083,10.230638016278519,jogging,10.364099865733495,1.6578937863366798,0.5586146189598155,0.31493648307470784,9.891442506536325,0.6050935713773729,0.4453951615683997
0.7059364064284155,0.4743625551833002,9.928720349162392,walking,9.965081726486364,0.8505092848882336,0.6353182708435533,0.36697666191960443,9.917988442101358,0.5651024420172233,0.4286183295810061
1.0935390228717192,0.43138010688721806,10.85188146375169,jogging,10.915367501576792,1.1755493997111572,0.7128954479302341,0.43498038920866355,9.98640134681859,0.5698939817331407,0.37003314813433474
-0.04304276988007159,0.08264531108587625,9.734789754781373,sitting,9.735235718629509,0.09318222729378203,0.7063384737220765,0.44877282949270303,9.985367033476257,0.5790237350248766,0.3518528908152562
1.4175803684860622,1.4652115052966521,11.983729443593605,jogging,12.155910094831363,2.0387199063065924,0.7914144049390026,0.5364947430649828,10.12810579894781,0.6174712907301108,0.4773792192909261
0.07339504783642385,-0.06760707152936095,9.798843702277663,sitting,9.799351787278294,0.09978752009989562,0.731732102566794,0.47575745959443533,10.16846349071978,0.6580003907182079,0.5141396695113457
0.1002758290797835,0.6311701091209223,9.243019526874228,walking,9.265087205349102,0.6390860259349714,0.7355244274865138,0.5396996056956416,10.146863026445406,0.6538097659379069,0.48626227256080706
-0.10656826978195666,0.038864724603331055,10.051463512676612,sitting,10.052103561424946,0.11343395850807933,0.7080105829679685,0.5437694588223118,10.19796270960525,0.6853480673479388,0.48137193795059824
0.6098935970906294,0.2235912736062272,9.942841321729952,walking,9.964038177692096,0.6495869898674094,0.5830255940037791,0.5062866480998177,10.161613777783392,0.5531971265489297,0.49113794499587493
-0.07756063614376031,-0.039039446711714255,9.563415554580182,sitting,9.563809742998068,0.08683162257254874,0.4975667291130493,0.4382192844536161,10.132934264570622,0.584992744540925,0.5167933459589544
1.8900158579697384,1.4654903574899518,10.464076095515626,jogging,10.733904716551878,2.3916149211930238,0.5663464453956983,0.4706069425032404,10.156278072494333,0.7051416161936729,0.572878763911718
0.5384172446545545,-0.07376123566578643,9.36139606964894,walking,9.377156830407976,0.5434462707833646,0.5495945292183123,0.4157945634183317,10.099545644542989,0.7034447546870731,0.5981442916810984
0.8045492232475197,0.3854169852937344,10.594242004993834,walking,10.631735952588215,0.8921018468656468,0.5206955492558922,0.4111982512589834,10.0737816986672,0.6842908315648797,0.5981878161273597
1.8849381661280296,0.4838441969531677,9.863912349147803,jogging,10.054047141759476,1.9460465300324539,0.7134936428567024,0.45131813984571245,10.086693958103846,0.7735869882667521,0.5870540685487035
0.25379584949748346,0.1288502676308454,9.426272395918662,jogging,9.43056870007047,0.28463085688429807,0.5971151909578445,0.3176820160791319,9.83094825333635,0.742823140240344,0.47129985158637544
1.347399716895569,1.2084246672071504,10.500211937210963,jogging,10.655056400589938,1.809910542928841,0.724515657863759,0.445285189952783,9.90108507682968,0.7522123851207003,0.5250673015729771
1.0378748576517434,0.7339133816700257,9.671899171565757,walking,9.755072867840319,1.271146361336868,0.8182755607209551,0.45555951720769333,9.943973041298834,0.723649752709936,0.5300899769016744
0.059166804969313105,0.14224229552858217,9.528254022932243,sitting,9.529499373365423,0.15405707204642455,0.8348490681960821,0.46589727430021843,9.891652092324396,0.701679244710192,0.5220071190983939
0.8178359928683056,0.5700730531765532,9.393873867967883,walking,9.446624013078894,0.9969147391772901,0.8556433077738497,0.500545452257251,9.836755346948191,0.6973397337874884,0.5155965610694078
0.4719778774244491,0.18996637091416574,8.522068089296448,jogging,8.537241642208636,0.5087733668898036,0.9105971591306705,0.523446034019839,9.732620600419816,0.634444169908816,0.4935834343746098
0.5372004996113301,0.2540221355138085,10.313884253904021,walking,10.330988337281335,0.5942319598554577,0.7753156232948297,0.4022992118222247,9.717601416258656,0.5395294020311828,0.36983444713959274
0.37940907297426313,-0.22899174181662543,8.925092648722266,walking,8.936087916462753,0.4431573789021252,0.7594148061268006,0.38677616120714087,9.673971074165987,0.5495372372200855,0.3944733101940714
0.27938856689827485,0.3332392433925718,10.097129918513836,walking,10.106489942408173,0.4348636161491618,0.7068987404918762,0.38155838701702455,9.624259865517988,0.56947629733766,0.39483819958083854
0.10896295229091613,-0.09126787606958671,9.868149714972835,sitting,9.869173296041197,0.1421363787853268,0.5293012191081647,0.3240471797147491,9.624683602100491,0.4180737310712693,0.41940456908583124
-0.09769457393818821,0.09661396608610485,9.721811778971581,sitting,9.722782665161782,0.13739901098570959,0.4941521767645976,0.32082354956027503,9.654237540405784,0.45679277644895155,0.4211916754731982
0.3005241386337259,-0.34971114351161914,9.081337111891798,walking,9.093035597731982,0.4610993838618169,0.3894646189384133,0.1650099684883981,9.512350057873867,0.3460575370140743,0.3359272668453846
0.10331898643631479,0.13486931986455122,9.62174229938899,sitting,9.623242147127458,0.16989569270276994,0.29600903181687044,0.10510556230785066,9.50733437065619,0.26913573362146,0.27018432882081994
0.013185844886174247,0.580045794230267,9.265983230206656,jogging,9.284130126855212,0.5801956479581551,0.29141093580855654,0.14888591217801914,9.481107291383632,0.27398087479606675,0.3094830888325241
0.5154504122980564,0.23698893095420387,10.552764216808526,walking,10.568002909560894,0.5673207919097032,0.2611723777515317,0.11557749995578422,9.596996326267696,0.22098675681231086,0.27513371928475766
-0.043651486326554356,-0.056308107705237365,9.630861357318686,sitting,9.631124884412317,0.07124644027501988,0.20960944137643128,0.09095005209384391,9.70787565306992,0.2264232971721407,0.2787338271349737
0.04076897368371771,0.022084177029035233,10.012976673105959,sitting,10.013084024228217,0.04636615242041801,0.15996628878367009,0.06775625624536659,9.677784894990115,0.19943095759420765,0.2732527117284759
-0.32253261951330314,0.01967754346370193,8.323744120767188,jogging,8.330013846589525,0.32313232021399385,0.08977211953491343,0.09262318477339933,9.617650042194606,0.23412537207224518,0.2538748482416416
-0.5972434474221359,0.8854926651612998,9.061683111498862,jogging,9.124412189766902,1.068080987352148,0.002108918102872359,0.14784852695027212,9.514105361493108,0.30777333504981536,0.3528171525508923
2.193783875804949,0.9352063991137702,10.697405887953634,jogging,10.960008733313591,2.3848057997843615,0.21059101045427564,0.2504959544686078,9.597030978791187,0.7608396925030426,0.4186897962175753
-0.562199731798629,-0.22726810306999473,9.059899174162032,jogging,9.080170283375162,0.6063986552652341,0.16414049466823158,0.21810774755299783,9.530839718310233,0.7951577317176216,0.44369649010275597
0.6942872719254245,1.3472566750242343,9.62465629209129,jogging,9.743261471665813,1.5156303521489016,0.2035168079974014,0.38780452940658316,9.585171636330182,0.8122282472976374,0.5202978001544996
0.038767987903284645,0.0009426360563773239,9.861181857634625,sitting,9.861258108111311,0.03877944621579848,0.1970617081440984,0.3744118610257658,9.609115592154746,0.8133687436628662,0.5291797086316553
0.8301470678697997,0.5466401053940576,10.068887248288204,walking,10.117828323205472,0.9939615481084026,0.27875783044246094,0.3710712921421449,9.6894059939629,0.8336241222073428,0.5278411099222654
-0.06257730437317764,0.08437900258815756,9.882369001333755,sitting,9.882927340298657,0.1050511070878628,0.22095505877533758,0.3558102993055402,9.622366472415424,0.8354265235304654,0.5343148828380453
0.01756035498043702,0.0365169001048321,9.912806957542825,sitting,9.912889771785508,0.04051974901582247,0.22707624290603667,0.3650928000865472,9.650561032437837,0.8334943430344076,0.5271175908623399
0.3571699538592791,0.3003444790779035,9.830579650190051,walking,9.841649934883032,0.4666660283890577,0.2587163409235928,0.39291883029143404,9.632321330146246,0.831639504958738,0.5141844828226808
-0.0016051075291652894,-0.055113770296220735,9.472367209308851,walking,9.472527680193709,0.055137138540594995,0.2908090921220066,0.3854396989154417,9.747183639000413,0.8126934540015599,0.5207191523178701
0.21410588895065297,-0.01278791250117814,8.968307850966216,walking,8.9708723417565,0.21448744109967635,0.3719440257592855,0.2956116411491939,9.737846112947148,0.752451781062382,0.5020156462965089
-0.06226717665523829,0.10925378336083032,10.08286827747283,sitting,10.083652428130156,0.12575209925591657,0.14633892051326675,0.21301637957389996,9.676392351899068,0.40223202803201763,0.45038322034750516
-0.3524515234430331,0.5672429855419548,8.353542826423148,jogging,8.380194773029412,0.667822342411412,0.16731374134882634,0.29246748843509496,9.605756717125178,0.3649171737751025,0.43385951160116537
0.2940830142869918,0.06068673629678131,8.866217813611867,walking,8.871301258421047,0.30027936867936517,0.12729331558498308,0.1638104945623496,9.529912869277236,0.31986696805838744,0.22845435976334616
0.0115596738679908,-0.02266622037239996,9.771421221556995,sitting,9.771454347879866,0.025443734118727704,0.1245724841814537,0.16144960891947188,9.520936805669475,0.3208179491103689,0.23043785340141557
-0.21326507624763108,0.41562026364510074,10.147203318522264,walking,10.157950451923291,0.4671425866899002,0.020231269769710628,0.1483476247445762,9.52876841269288,0.21953112714828538,0.20881379844210898
0.11334432409772108,0.6903552030835842,9.96305888778842,walking,9.987591283376066,0.6995979146836746,0.037823432616800504,0.20894524479411886,9.536837401338348,0.21920644279899387,0.26778688387472793
0.9761254857252485,-0.781386033062178,7.895765316280264,jogging,7.99415380301889,1.2503539884956578,0.13367994569128167,0.12715495147741784,9.33513323721209,0.3682659999760961,0.4122453856109802
0.8424019062403448,1.2773433366949964,7.754476713777834,jogging,7.90399620925764,1.5301133851569542,0.18220314092938822,0.22485483723912716,9.12752294357087,0.4280930129329331,0.5504545953480775
-0.6658688249031688,-0.24846542611831507,8.983061983185971,jogging,9.011133056043239,0.7107153860400679,0.11577676919198784,0.2055196716569177,9.07859242095858,0.5045007001322872,0.5645955797517472
1.5896045181208,1.6763422893754873,9.940057458044908,jogging,10.20498448134111,2.3101874372393922,0.2533266321090026,0.3744326918445843,9.17576738166645,0.6883142513691509,0.7225924320481448
0.7178161645301244,0.2628098491632085,10.238960876993035,walking,10.26745581453711,0.7644141958898506,0.33133496622753883,0.3897882984248221,9.191376641618472,0.692763118839642,0.7179477127857371
1.5532367644804048,1.1627723876036966,8.494857541268878,jogging,8.713620872998773,1.9402536102033563,0.5219037950198826,0.4493412386309963,9.205508113103043,0.7439834156951333,0.7578910046174402
0.09878615824065093,-0.0419846995831229,9.904763770157656,sitting,9.905345363120194,0.10733787802556936,0.5023741094152486,0.4390740950430058,9.309362708757622,0.7531352280586296,0.7644085358354639
-0.04119498552291989,0.3823914948335084,10.309778494324886,jogging,10.316949785871653,0.38460405894015043,0.4970986434761575,0.47957986656359664,9.363198436034413,0.7571293953045352,0.7477733844142345
0.3974747349348674,0.3702057676213401,8.818724351838497,walking,8.835436473032951,0.5431744427821037,0.5581726245944074,0.4750384169612206,9.230350539366034,0.717031867280729,0.7483426818283108
-0.06172857068788872,-0.024517242185138573,9.983107279324317,sitting,9.983328225702174,0.06641921110292122,0.5406653351158464,0.40355117243434835,9.232355378519625,0.7310990593624238,0.7595496620375741
0.23155282313675762,0.49847074334064845,8.07993210941005,jogging,8.098604366466159,0.5496269570073699,0.4662080688569972,0.5315368500746309,9.250772057832602,0.7196479593609516,0.6353801494707482
0.11966271208272423,0.0749698021444869,9.601818615221582,sitting,9.602856885089576,0.14120777562364076,0.3939341494412352,0.41129949661958004,9.435506247976978,0.7139386337969638,0.5907647916223246
0.07914974359729572,-0.030530915351856487,9.727012149544903,sitting,9.727382082353806,0.08483406570322963,0.4684360062912817,0.4330929476962259,9.50990126461287,0.624302007262075,0.5672743962487373
0.8431762804446306,0.14025748734786891,8.284662014422143,jogging,8.328639930737234,0.8547621907066197,0.3937931825236647,0.27948446749346406,9.344361720250594,0.5094084691741959,0.3651986057999156
0.14239538455411668,-0.014963594425179253,10.031016173561605,sitting,10.032037969872071,0.1431794492950578,0.3362511045260639,0.25170712313462523,9.323567249907452,0.5011732843760329,0.3769815799771639
0.5764053267999434,0.4457466077675141,10.138889264341152,walking,10.165038546590557,0.7286515896500848,0.23856796075801778,0.180004545151007,9.48797042221468,0.2870872761079465,0.21990776181497332
1.7605598843348629,0.7375459033846408,10.649979715577722,jogging,10.819686363668106,1.9088072364512483,0.404745333367439,0.25795760544778334,9.562492016756686,0.5540300040383049,0.26584062866171165
-0.08358702556183059,-0.014503369152842244,9.922412156617092,sitting,9.922774820801978,0.08483595086434605,0.4005061293635479,0.2182681190491483,9.523755382985907,0.5579694560170517,0.2746795699178056
0.48032687780453703,0.9123815553454321,9.86733845369359,walking,9.921064568473295,1.0310936000557875,0.4087913436505149,0.2724856978215575,9.628616793171416,0.5585342861656718,0.35092777827512545
0.07654374943750158,-0.081971502286739,9.820064086108134,sitting,9.82070450263299,0.1121528990490031,0.4226185756630539,0.2667402718113975,9.612312473849798,0.5471880125822487,0.356752608216215
0.2797972670714118,1.1446837759464812,9.80009631635871,walking,9.870687679563328,1.1783834085626481,0.42744302005651935,0.3313615750719808,9.784328894544663,0.5455264065088093,0.44978741495764274
-0.08460396726276345,0.03476735422449994,9.706233886895953,sitting,9.706664868394483,0.09146912154585614,0.40701635212197057,0.327341330279982,9.7947704217121,0.5619096856457905,0.4525051546449011
1.0540668551690333,0.7360424535280974,10.708090057922961,walking,10.784989945157584,1.2856186948553592,0.5045080632791443,0.4039986671679774,9.892878212549906,0.5828868726212283,0.4500677511695017
0.2857974517698546,-0.18176809962246848,9.268894953437934,walking,9.275081319500423,0.33870315244843235,0.4487701804116667,0.3717961084709437,9.991301506451485,0.5734772116823472,0.4814609795036842
0.02921688282073261,0.16923130191048757,9.616805392309217,sitting,9.618338672210275,0.1717348531547368,0.4374523302383283,0.3902155981045104,9.949880428326248,0.581259506734953,0.4683658031627737
0.5880474283409344,0.6158649617468593,9.895695261507708,walking,9.93226430063719,0.8515218312444179,0.43861654039242737,0.40722743350244495,9.925561028042903,0.5815803108766187,0.4736663906863764
0.9125534944711611,0.7727658809871844,10.821088430457209,walking,10.886958978836299,1.1957930368961958,0.35381590140605723,0.41074943126269925,9.942671899530852,0.4012884069700236,0.4765177701425598
0.6679450749796978,0.5254086287366238,9.16578763176612,walking,9.205100095109087,0.8498263648184453,0.42896911146021005,0.46474063105164587,9.867009447045755,0.38008292040793173,0.45298748549212964
0.06621687539474996,0.022654275093099606,9.995026479021972,sitting,9.995271492416672,0.06998493242861406,0.38755811121923134,0.3757679030264126,9.87977824957859,0.3960878259327833,0.44255262635105286
0.7157529186143364,0.5390889654415474,9.893400756351559,walking,9.933896399648194,0.8960575613016045,0.4514790281369148,0.4378739497992412,9.887111916602935,0.39187486024666207,0.41382393459677647
-0.06723935843265022,-0.025876441187237878,9.730738243798081,sitting,9.731004957908793,0.07204666217772335,0.4167753655865087,0.32081792808586934,9.880176109346872,0.42290580122380345,0.35272202026440364
1.4339312576334522,0.7335185342230772,11.228869227059445,jogging,11.343796208063225,1.6106546158835624,0.5686288880761302,0.3906930460857271,10.03243964336322,0.4901557349762641,0.35891610758555337
0.09109444038394754,0.029441897768404814,9.907899140274417,sitting,9.908361640365353,0.09573412355617913,0.4723316465976216,0.3200329905097578,9.952420551598367,0.47864755561254524,0.3528762286882341
0.7459849395524676,0.14898382571293387,9.661890443942971,walking,9.691791199830899,0.7607165768952066,0.5183503953758829,0.35310818304329805,9.99172010064887,0.48083783463619245,0.31397248535988537
0.6339227575163714,0.19418314830597494,9.143825093218231,walking,9.167829759160593,0.6629971022434265,0.5788209828454468,0.3556033676828468,9.94442207073977,0.4494915234963529,0.3124442517127115
1.5199362185450822,0.5895145303338941,10.197083254254345,jogging,10.326579316700874,1.630255651706172,0.6720098618658616,0.35296832454155025,9.974560870014434,0.5392540892642905,0.3101077938035427
1.8038480886215202,1.2361036938786236,9.683550103065915,jogging,9.927384492777128,2.1867373570787807,0.7611393212808976,0.3993021058306942,9.860807037275304,0.6464355843217489,0.4010723810112371
0.11179338227271521,0.07177387066589794,9.864610990097278,sitting,9.865505523528855,0.1328504754614694,0.7055241520101992,0.35393863002362164,9.930689373108422,0.6784742026152255,0.41076147899398857
0.9154906660339038,0.30777487062878117,9.585656248969757,walking,9.634191935704765,0.9658408412289076,0.7904515310741147,0.3824506895771898,9.8897523501032,0.641715646482185,0.3947963366777906
-0.5555161580829032,0.1359946419349632,9.199936739733612,jogging,9.217696499648191,0.5719202256663144,0.6633246234043907,0.3421412572265313,9.820405948441405,0.7710474383356016,0.39759469279897147
0.609022902628457,0.6117048491656776,9.858155589022093,walking,9.895874056180501,0.8631869544998902,0.7309508495105014,0.4058993862618229,9.833147682963807,0.7283252669441288,0.38287078923570345
-0.03894035615253766,-0.05430219463857897,9.674549219525558,sitting,9.674779980997108,0.06682125170821475,0.5836636881319024,0.32711731337565725,9.677715682210417,0.7192384232649647,0.38897235121959417
1.7027331079163581,0.5681792124924496,11.033955367094459,jogging,11.179011525950568,1.7950285942856288,0.7448275548851435,0.38099104484806173,9.790321304892421,0.7750045998793396,0.38037580931975545
0.5022611911472145,0.22303620953267286,8.964768797091725,walking,8.981597354602618,0.5495556886206538,0.7204551800446182,0.38839628323003567,9.720609140207298,0.7787872440340473,0.3760534553542279
0.4636603180429102,-1.1726685445741054,9.66196392766996,jogging,9.74390472785714,1.2610045225776167,0.7034289360972721,0.2517111139420276,9.77242302365247,0.7827404106658183,0.6222827252545364
1.1694934500223388,0.8811057565077673,12.294631913927637,jogging,12.381519946386398,1.4642616855590662,0.6683846592449976,0.280870236559415,9.9821778896198,0.7492510282388346,0.6462409281545248
0.6963608764722247,0.27757733516020927,9.400151476391285,walking,9.429995515713518,0.7496450141739143,0.5576359380300682,0.1850176006875735,9.953838026952337,0.6360683581908114,0.553203663740179
1.6684443182111974,0.7664395613602739,11.458154060512044,jogging,11.604328094233548,1.8360653703475147,0.7133010316239164,0.2544841697570111,10.113192333993814,0.7019061401280048,0.58035237896763
0.14570690838152975,0.20124887408204692,9.849797285049275,walking,9.852930435613228,0.24845847232363616,0.636322655858679,0.2438315701023377,10.139606437601765,0.7192647328322676,0.5802431744126919
-0.05632097340426204,-0.012581935154833301,10.0144279487789,sitting,10.014594225350391,0.05770924655065271,0.6862421743265431,0.22897391239335801,10.221055558506293,0.6403498747270626,0.5851923573348796
-0.19911401489546665,0.10279590022577981,9.687934586949941,sitting,9.690525782900119,0.22408343988572782,0.6054284825741507,0.17808301749936825,10.20403345829908,0.6994454864543542,0.5701452002886062
1.300985319287518,0.44378030146563063,10.035250067527185,jogging,10.128955902499277,1.3745922147933805,0.7394210501181563,0.2278912671097892,10.240103543099242,0.6905765648997532,0.5693440170058602
-0.025518717151428366,0.03939905721750079,9.794532901961295,sitting,9.794645387059045,0.046941353140727685,0.5665958676113776,0.17501325158229433,10.116161296585926,0.6368796517801737,0.558683578648096
2.7956986513694346,1.3116505255812725,11.252075738247182,jogging,11.668143231456211,3.088099423678989,0.7959396136335997,0.28387468318715425,10.344891990701472,0.9480574261340823,0.6650209724932087
1.6133639439466048,0.9792111872997662,10.928290415008515,jogging,11.090055417342464,1.887272573042898,0.9109099762239691,0.49906265637454145,10.471524639435327,0.9726771253721256,0.45694542419949663
-0.2920713275335313,-0.0478993245664856,10.016234361072977,walking,10.020606308083364,0.29597298130255884,0.7647534984683821,0.4061621482671162,10.243684884149861,1.037175039141787,0.4650086642491573
-0.048021443413239946,0.06248178230538753,9.798416534767872,sitting,9.798733419221078,0.07880375719182965,0.6903152664798357,0.384652592981634,10.28351138998752,1.0688573134146717,0.47645135586392207
0.4304945510553624,-0.10265667378668229,9.563011562325064,walking,9.57324678948183,0.44256519424973234,0.5665202897642521,0.29774296946693835,10.09399714016882,1.0132248849689427,0.4783338276653645
1.053463206154915,0.37896979774961775,10.579168143595187,walking,10.638242403930633,1.119554748249758,0.6572959195415906,0.31551506183369543,10.166934226023411,1.0119974396070213,0.4776513687616358
0.5960955470580906,0.22105140034148488,9.310514553350403,walking,9.332195608267385,0.6357622376450301,0.7225375715878259,0.3388783953833273,10.096542886480563,0.9814491011887421,0.46537616339221144
0.13747996495202836,0.2921465421634548,10.427445277014758,walking,10.43244292330414,0.3228782167648883,0.7561969695725754,0.35781345957709476,10.170493955487043,0.9516478252370689,0.4585046123732887
1.0026461928661767,0.5105607050444128,9.986626491567193,jogging,10.049809963560314,1.1251540435000384,0.7263630569304412,0.364491499934973,10.165631597891045,0.9372385264848533,0.4603783199079701
-0.004149110457737924,-0.10802670597806928,9.876314499657397,sitting,9.876906149218236,0.10810635652940459,0.7285000175998103,0.349748923615416,10.173809757660655,0.93535618041971,0.4741013370359472
-1.0921558394746007,-0.1367143447238729,8.177542458420355,jogging,8.251284496914366,1.1006794218807527,0.33971456851540677,0.2049124365849014,9.866356429677971,0.7748804181927326,0.3534849422911051
-0.05198341457252262,0.060898444649243516,9.680326681783583,sitting,9.680657806265156,0.08006807073556683,0.17317983266349404,0.11308116231984915,9.741560056355478,0.6375180484114511,0.22643028974403873
0.049911050679894126,-0.13395179235650373,9.846510323581274,sitting,9.847547905344157,0.14294822718554734,0.2073780704848366,0.10447591554084734,9.72458765260631,0.6186818168313175,0.23471167793671555
0.06312243569717832,-0.08727849535276426,9.494614614484284,sitting,9.495225571581644,0.10771247671178537,0.21849245839587841,0.08949988777503218,9.69420746057795,0.6145685202356332,0.24234263591345903
0.25805718396185146,0.18287026990065763,9.9161573196164,walking,9.92120008029219,0.31628317345040696,0.20124872168652735,0.11805258214376617,9.729522036307085,0.6103639360834595,0.2338591454471096
0.15061472407749465,-0.09677523395471,10.091386576824595,sitting,10.092974451762549,0.17902581103273546,0.11096387347878527,0.07047807897333339,9.680743879630024,0.5320482378150442,0.22302236131888617
0.05212299906445414,0.17441031844659785,9.591907022985371,sitting,9.593634144775805,0.18203232188849527,0.05656661867942163,0.06581397078384468,9.70888312659352,0.5040058245644216,0.21999060815213733
-0.2740426422034931,-0.0734975101257266,9.983174862500613,sitting,9.987205894994089,0.2837274286010308,0.015414357963869479,0.029249565554926544,9.664456085142106,0.5133784903201181,0.20826652465445203
-0.15956329107084186,0.35735893608281466,9.252015088659745,walking,9.26028882129727,0.391364092700901,-0.10080659042983238,0.013929388658766733,9.590994944851362,0.37902428275655636,0.1712771553344119
0.3805106354732324,0.21710120523327275,10.200500038471361,walking,10.209903148995892,0.4380882068967193,-0.06234061583673535,0.046442179779900936,9.623413498732758,0.4083111495708192,0.17633851839298095
1.9942361018329513,0.58075920905277,10.385902311166701,jogging,10.591563893299766,2.0770794132034247,0.24629857829401985,0.11818953515756522,9.844249484007394,0.6426394213677149,0.23101923991234033
0.7258428957731156,0.4774499884240575,10.449276031966741,walking,10.485331467961565,0.8687959488800777,0.3240812093285837,0.15984468953504663,9.921144419025708,0.6495603693878863,0.2557697072356246
-0.020889854090868215,-0.06513078796091303,9.951042936976208,walking,9.951278005316123,0.06839887092889163,0.31700111885150745,0.1667267899746057,9.9315976803652,0.6532561640824635,0.24778737477761836
-0.05831228313242981,0.045957548831106546,9.850929318110634,sitting,9.851209105945843,0.07424566424162558,0.30485764696854667,0.18005039439299278,9.967229150727837,0.6595978293256908,0.23590925472350982
0.08514099367626543,0.009406984119152386,9.650336332601098,sitting,9.650716492182081,0.08565909265454459,0.28756602793998803,0.16270406581484226,9.940647052026307,0.6632176441469523,0.24197815759977004
-0.4497155546420962,0.07083662929708834,8.033034534065004,jogging,8.045924790452505,0.45526026417558274,0.22753300006802896,0.1794652521400221,9.734811847750347,0.7029704924738902,0.2273718452255846
-0.038131383705526684,0.288794860506975,9.856031194694651,walking,9.860335054381906,0.29130134548014236,0.21850756179103087,0.1909037063460598,9.761224264921276,0.7060454762339355,0.22995183857504087
-0.02622335693828559,0.17283293805663336,9.856733942814728,sitting,9.858283973814224,0.17481100916818937,0.24328949031755162,0.21553675116429583,9.748580172952687,0.6910256475305991,0.21088472706960928
0.9340509659342663,0.17512972055021853,9.956418713936088,walking,10.001669622278047,0.9503271152517608,0.3526509160180624,0.1973138296110362,9.819020535480321,0.7065495066650072,0.20506090160124363
1.083639384426247,0.4572150358779353,9.706644070236532,walking,9.777640769161577,1.1761462088161307,0.4229637909133639,0.22132521267550245,9.76963493865684,0.7436425979620918,0.221068463982421
1.3674688185835262,0.301797007559798,10.74202316888077,walking,10.832918081677787,1.4003758079780848,0.3602870625884214,0.19342899252620524,9.805247024428246,0.6110962981970037,0.18539516742530404
0.5754815253533475,-0.3035051036536987,10.523457953238356,walking,10.543550712522915,0.6506107392034487,0.3452509255464446,0.11533348331842963,9.812665216555406,0.6028971633785032,0.2146389208759216
0.16879305386360088,0.4581743004021631,8.551820481198007,jogging,8.565748556151956,0.4882773643961105,0.3642192163418915,0.16766399215473723,9.672742970977586,0.5930003987160944,0.22906002325751754
0.14140291355619874,0.15301856237965608,9.806339459744748,sitting,9.808552546841039,0.20834938059643593,0.3841907360107543,0.17837009350959218,9.668283985140999,0.5804185153507052,0.22520910591843177
-0.1229495157708088,-0.012064303412983486,9.772592230727852,sitting,9.773373063529679,0.12353999694478257,0.36338168506604696,0.1762229647563786,9.680509574953673,0.5958561717983629,0.2270934457870116
-0.1149741455367893,0.18068588841465116,9.94115998271779,sitting,9.943466611117255,0.2141645265073247,0.39685582597657765,0.18720789066813487,9.871322119818952,0.5529610389716588,0.22406592534042274
0.7315667433834045,0.8191472081306878,10.427327816462824,walking,10.485006315715422,1.0982677490543462,0.47382563868547073,0.24024312543050613,9.92845178199577,0.5390802043548522,0.300508805073244
0.5121760946533557,0.0460680314593727,8.856084090273246,walking,8.87100174892598,0.5142437315679258,0.5276655838446349,0.2275666347707801,9.828386796741622,0.5096732682204486,0.3062864993109478
0.4415391212944645,1.0325794401140773,9.660842845668826,jogging,9.725896441176532,1.1230214137672483,0.4784143993806548,0.31331160672716596,9.798829209914896,0.489434306125261,0.39666341197223487
0.07602395782477704,-0.14984268584265475,9.469217702301401,jogging,9.470708334979076,0.1680252143694035,0.37765285672050775,0.252605834555107,9.775086573121381,0.4533830071131195,0.4180681172078614
-0.2464770579216602,0.3286856158229366,8.73948805501526,jogging,8.749139194108471,0.41083472848655395,0.21625826906998907,0.25529469538142086,9.574833061734832,0.3332209382200139,0.41850588971327324
0.3710690846596478,0.3081227333150033,10.17516374840772,walking,10.186588692554848,0.48231927638822136,0.1958170250006191,0.316457479078291,9.540003641251769,0.3144788173738536,0.3696017891095777
0.24393417188135824,0.25664615463952634,8.62460062451765,walking,8.631865792592754,0.3540778571200121,0.20333113680239484,0.29630466450202736,9.547281655583731,0.31465901919343137,0.3664971911895598
0.48764282431813033,-0.15063201448700952,9.611065070131207,jogging,9.62460686522798,0.5103778285715177,0.237955127878588,0.2659396068153608,9.527754216622379,0.32593498132826715,0.39141947391367343
0.7247715275471023,1.6622125788599702,11.15345274034054,jogging,11.299900550689514,1.8133517100836432,0.3227272322103791,0.43336729504265614,9.665840267583647,0.3318261688379816,0.5745389041598087
0.5472072596747081,0.8176158246981043,10.409751531738227,jogging,10.456139745353628,0.9838350582478064,0.38894537273152885,0.4970602886710015,9.71269942248569,0.29924679934036263,0.5787040729511114
0.3754918313749106,0.25040179211743707,9.247029539690788,walking,9.258037074933267,0.45132601622874396,0.35333788153067947,0.4401857470696764,9.594669594808487,0.2740742969201642,0.5714347373899483
0.34660749473077085,-0.10184270966827991,9.900950439799834,walking,9.907538963046708,0.36125986895324935,0.33678102153842093,0.4253946729569112,9.699156229761146,0.2683540170332591,0.5845337408078174
0.11109111447344332,-0.005008059885646664,9.912490758941727,sitting,9.913114513738046,0.11120394048220553,0.30373622085631885,0.32163592295693877,9.724321021088436,0.27430052300478436,0.5561805898007607
0.6248652420457722,0.4573056521010342,10.287785180626118,walking,10.316884653463507,0.7743287610314327,0.35862034927841835,0.38235075675130764,9.806177768920907,0.278550871131867,0.5315891189697957
1.6577929521049202,1.1019336122464978,9.958435148440314,jogging,10.155440205305668,1.990611754674266,0.5490473502810763,0.45967555639366375,9.928072478263413,0.42913316282179814,0.5771973680195437
0.6446772844306004,0.3456998944103147,9.536214718081084,walking,9.564230673054807,0.7315170661413962,0.5764081702581716,0.4634332725031949,9.864177575230748,0.42522936548991463,0.5762225846817673
0.3223654790351053,0.36617800573343573,8.681159538119099,walking,8.694856914304724,0.4878584158917923,0.5842513009735464,0.47438645761258574,9.869833466590894,0.4190947521938216,0.5728864688803453
0.034652701831300044,-0.008857106726878993,9.919983093455897,sitting,9.920047572090299,0.03576671754271435,0.5389522887248633,0.48856394838859885,9.900725268923363,0.4537460277338199,0.5572408611082998
1.1595183223490588,1.138124674760011,10.423065522317044,jogging,10.548938591046733,1.624749369952411,0.5824269682050589,0.43615515797860294,9.827686547121013,0.49268448932247316,0.4486606750358867
-0.03825838427224335,0.09632265338939393,9.751402872394914,sitting,9.751953636952694,0.10364245039121739,0.5238804038103638,0.3640258408477319,9.76185168118668,0.5306573419466762,0.43838277527705904
1.0858585414040567,1.4450320736385758,10.229945080804617,jogging,10.388406173329138,1.807541552989681,0.5949170748132785,0.4834888689998458,9.860143235298064,0.5555490880890609,0.5520230489216318
1.0073131769754133,0.3079334023946051,10.697450068624336,jogging,10.749183261417095,1.053329396161817,0.6609876430377428,0.5244664802061343,9.939793198180515,0.5619878212551522,0.5178996081968156
-0.0944908722685067,-0.017281335189340632,9.80645367275227,sitting,9.806924125602505,0.09605815680091719,0.6404294443635478,0.5232391526757649,9.929189489561569,0.5875190777788514,0.519306415764274
1.5277475234826459,1.6444089130962782,10.734499493163458,jogging,10.96665730921252,2.244569706865403,0.7307176725072351,0.6419494787752893,9.973860920815303,0.6508267808898973,0.6270624079381072
1.0568879635732986,1.1272035512502647,10.051635710687464,walking,10.16970896701891,1.5451860773050352,0.670627173654073,0.644476472675666,9.983180977040018,0.5795581931015628,0.629169437156708
0.11911730449400958,-0.11785727847701738,9.825572702104537,sitting,9.827001485430934,0.16756870328294546,0.6180711756604138,0.5981207553869328,10.012116775442363,0.6054252594021533,0.6694180229491086
0.6256201918924964,1.2230608582900655,10.369398833914254,walking,10.460005289882368,1.373782547416015,0.648396646946153,0.6838090406425958,10.180940705021879,0.5964968556349901,0.6909262925668084
0.45788101071040743,0.38791727256689057,10.397615299039652,walking,10.41491904611593,0.6001123480856894,0.6907194778340637,0.7234864785719728,10.228703925580254,0.5621366823096963,0.6573038221686743
0.1898620025892967,0.4886610334946829,10.44735879227357,walking,10.460503951539772,0.5242491637411639,0.5937538458580874,0.6585401144454399,10.231133252575907,0.5558818182180191,0.6437280900714256
0.1360545591321669,1.4621507413372603,10.870502993837597,jogging,10.969240218560532,1.4684671032930048,0.6111851401985284,0.7951229232402266,10.343043264720176,0.536247459485265,0.655966260571844
0.8915855208191068,0.28731606673233734,10.028558579912643,walking,10.072212391221518,0.936736496105932,0.5917578381400335,0.6793513225496028,10.322904614630977,0.5204258272721408,0.6301746565267708
1.8772650399584498,-0.37900464089595143,8.790926684341539,jogging,8.997119567813856,1.9151419132980378,0.6787530244383372,0.610657518220547,10.132252276202697,0.653345941811048,0.7078181315355441
0.43380050633454903,0.8357797951007858,9.37521770476747,jogging,9.42238917456609,0.9416531979422268,0.7315821622986427,0.6959636312495597,10.089128679404219,0.603318113195597,0.6743441317885641
0.35287566156856975,0.33093044241071523,10.57379064519333,walking,10.584851666349397,0.48377287051012635,0.6140949761072351,0.5646157841810033,10.073057794607205,0.5423653599991715,0.5919683061805247
0.40289623160198673,-0.5422707351372735,10.210479315459104,jogging,10.232803661511522,0.6755611916217514,0.5486958029101039,0.3976683555422496,10.08894215508437,0.5220909259810836,0.6484011628101325
-0.01020062801272617,0.02452358478942364,9.905772298840727,sitting,9.905807907258401,0.02656047858714267,0.5357640096594304,0.4119064418688937,10.09696211475799,0.5353467865013749,0.6372911179349103
2.2119471653760576,0.9948485183888323,11.417448696877022,jogging,11.672213525410442,2.4253729273981004,0.6943967070077864,0.3890852078787704,10.201767101054264,0.7549273804441672,0.6084499076504013
0.8732127556272791,1.4940068688307624,11.277727586012148,jogging,11.409719389406694,1.7304788472280397,0.7359298814994736,0.4996941675051575,10.289778329751517,0.7518882605010693,0.7016178687979928
-0.042459816602214255,-0.15722305440781298,9.767664808487158,sitting,9.769022353123248,0.16285553371996847,0.7126976995803226,0.435105758714908,10.221808931372873,0.7739025676171709,0.7318250083219602
-1.6940938891877586,-0.06268285930420892,7.86587985239576,jogging,8.046486755010498,1.695253151076221,0.5296828547483299,0.282622398650761,9.92134661722869,1.080920942917049,0.6481230118310056
0.20677379348020686,0.10639132206342969,9.834652203396978,walking,9.837401002137792,0.2325392764257248,0.4612016820144399,0.2645299241838702,9.901955979577124,1.0771315186116617,0.6504983501299226
0.5521839155485675,0.598987386038186,9.987944049753184,walking,10.021113675945575,0.8146735329095983,0.32869356957345175,0.362329126877284,10.021657716118288,0.9585503586122142,0.6155766175400684
0.09498890682492922,-0.03333800556076657,9.983915687800112,sitting,9.984423206982752,0.10066933512527432,0.2948124096224898,0.2754173468111287,10.082527514421551,0.9604084883931948,0.6025198491766277
0.37953329048783524,0.17455286221215371,8.81935753165238,walking,8.82924580535668,0.41774899197362364,0.29747817251441633,0.2597795887912726,9.907084203067457,0.9606245309235838,0.6029481333486809
-0.09681285978523267,-0.05263908651106778,9.773696273840775,sitting,9.774317493131557,0.11019801835112462,0.24750726337569434,0.30874275365389314,9.863405898905624,0.9675040590255383,0.5479522338274134
-0.39887081711262473,-0.21260144070726333,8.354493561390724,jogging,8.366711418989778,0.4519925899114906,0.2086402444657045,0.28503025110422453,9.708278025160624,0.9866250977808944,0.5664373320520759
1.2210855105515586,1.0461877050779123,8.924534369062597,jogging,9.068234240628914,1.6079672068593778,0.10955407898325462,0.2901641697731325,9.458986592379182,0.794039452398838,0.5737708007597399
-0.08797173613845566,0.1575720450373765,9.882128979565344,sitting,9.88377666403393,0.18046599606705713,0.013435629806681148,0.1565206873937939,9.3194267317345,0.748178690643509,0.3876788490322991
1.0396444796964546,-0.17917535795931122,10.326329090544146,jogging,10.380078850340272,1.0549713043790143,0.12164605943654802,0.1543254570386441,9.375293159940199,0.8145092257886446,0.38970965244311373
0.01886310815679801,-0.04112604304834833,9.710551296636213,sitting,9.710656705541052,0.04524564361515548,0.2929417591710036,0.15648113866423013,9.559760304364247,0.5154348882924826,0.3884334246914249
2.0013550929729127,1.1777367620815347,11.717869633983684,jogging,11.945750493291069,2.3221727086775683,0.47239988912027425,0.26361568266604063,9.748082047422916,0.7438829891091535,0.5037195739041038
0.7946476858138581,0.375163389691504,8.911177246360419,walking,8.95440072978565,0.878756231007291,0.4966462661468033,0.24123328303137243,9.64040536708364,0.7506927465115399,0.49199815668049357
0.17159729067400337,0.20350681793039418,8.950493290984497,walking,8.954450893665635,0.2661966474447284,0.5043071045317108,0.2649177653804885,9.537063127402078,0.746517672239747,0.4829290288554536
0.7299642738501795,0.20324212517533918,9.98292553076624,walking,10.011641092017223,0.7577302967041822,0.5393502028679451,0.267786691676807,9.653419927313463,0.7482327460742256,0.4824174982650285
0.44044234975337754,0.387545494163974,9.898851714163111,walking,9.916221368671286,0.5866693902898593,0.5930757238218062,0.3118051497443112,9.665935471345698,0.7160761276867622,0.4698502159234778
0.41478820930625776,0.5339979137910001,9.032199302283098,walking,9.05747355870697,0.6761679011256245,0.6744416264636944,0.3864650851941375,9.733706045434936,0.6321488557486429,0.4353107856976041
0.08971657445920961,-0.0959613553997413,9.309220529406796,walking,9.310147394675973,0.13136835792096344,0.5613047328544596,0.2722501791463722,9.772174661469354,0.6246415741931419,0.3905139361668525
0.6000704195117474,-0.05278584940529726,10.332668726814441,walking,10.350213228352333,0.6023876279194679,0.6301089484194798,0.25121438970210486,9.817228636194264,0.5815875314242428,0.4028485392390382
0.8232631264100891,0.2421344318449529,10.699060701165905,walking,10.733419359441056,0.8581324247407229,0.6084708130908433,0.29334536868253125,9.854501797256441,0.5685364843628685,0.3738210247561111
0.6327720895101135,0.647747356166788,10.10533140584567,walking,10.145821798979858,0.9055258995103668,0.6698617112261748,0.3622327086040449,9.893979808177386,0.5296087118539704,0.36877491093262715
1.0695483773936831,0.30130203676887746,10.377940339495105,walking,10.437258372727308,1.1111780455653966,0.5766810396682519,0.2745892360727792,9.759986878728528,0.30265802465662967,0.23233269181140132
0.00999881637655518,0.008036232596303015,9.939258301870426,sitting,9.939266580018039,0.012827991396705532,0.4982161527245216,0.23787652036325907,9.862794984279528,0.3393570419899327,0.2434162930494704
0.0704741014276287,0.9223470000741815,11.817969020686466,jogging,11.854116684149135,0.9250354520329876,0.48810383379988415,0.30976053857763775,10.149542557249726,0.35146196395968266,0.32470651122743593
0.9129004611915233,0.8279411612385636,10.595864330081627,jogging,10.667296504738815,1.2324259890625306,0.5063974525340186,0.3722304421839603,10.210836437181266,0.36973545291970655,0.3601001346297269
0.601098142198038,0.6369545857520926,10.930487895362393,jogging,10.965518489863047,0.8758025581514093,0.5224630317784846,0.3971713513427721,10.314000055301193,0.3700414185506954,0.369785642789197
-0.20017060017255336,-0.0975532935614632,9.691262098566261,sitting,9.69381998890866,0.22267670344723814,0.4609671508306035,0.3340162306075257,10.379906334929508,0.4352730851474308,0.3967672236477879
1.005210967942984,0.37959889293746996,9.603019112864123,walking,9.662945746076911,1.074497282263768,0.5525165901789808,0.38157225544124695,10.409286193275243,0.44468781451995437,0.3668786307800136
0.7608366857030795,0.78225407306332,10.688583189740097,jogging,10.744142799736533,1.0912350329492728,0.5685932167981141,0.4650762476881086,10.444877639567807,0.44947828865168776,0.35174946197898777
0.14636012238782878,0.33314292725316663,9.540508704549211,walking,9.547445304215335,0.3638756592631457,0.5009029163958881,0.47417709722893003,10.329022439906137,0.45775792282618943,0.34647819382858475
0.9264771326040404,0.9331193605255711,10.530452431597555,walking,10.612233508190663,1.3149416786404846,0.5302734207052808,0.5027142976648082,10.371534542481324,0.4762093975274137,0.3730924665479321
0.7369976600173174,0.29206440119877786,10.311043001443483,walking,10.341473538279505,0.7927592101758275,0.4970183489676442,0.5017905341077984,10.364844808676164,0.44495155128094943,0.37365757407971284
0.8600008125352692,0.5117504024475393,9.429325852723313,walking,9.48228220993252,1.0007446587249624,0.5820185485835155,0.552161951092922,10.313851563761453,0.4221841161377222,0.33124561820658655
0.06314186062724064,-0.3033989362145269,9.774684209084315,sitting,9.779595553824393,0.30989967579779176,0.5812853245034767,0.42958735746405113,10.109523082601237,0.4231764500620205,0.39891729685874544
-0.019856918688096047,-0.10033018309754967,10.015413401927303,sitting,10.01593560554206,0.10227630644569395,0.4880095865155149,0.3367602230304398,10.051477989785806,0.4442352399449619,0.4038939857519642
-0.37657029691123867,0.417358693001493,10.701281476432905,jogging,10.71603558714629,0.5621329621537353,0.39024274260458713,0.3148006337553798,10.028557347892857,0.518033710979148,0.3915397507675438
-0.09117003975909338,-0.07153302809385764,9.930003446011906,walking,9.93067960353501,0.11588334763006847,0.4011427986459332,0.3174026603021404,10.05243148263742,0.5052186073456238,0.3885701165616644
0.7712823763878118,0.36563794421559,9.717163828621004,walking,9.754580487270431,0.8535617203088673,0.3777499394904159,0.31600656542995237,10.06384595421311,0.4788696489457244,0.3883468380790511
0.9734798455272184,0.5914522833826301,10.667668246807409,walking,10.728309495773754,1.1390692749636537,0.39901425547282987,0.2969263864618834,10.061754459919841,0.5019364967152965,0.36699416778344557
0.07735476151070181,0.057726236720091945,9.905169680106939,sitting,9.905639932343798,0.09651982974623217,0.3921137193851172,0.26938471740857595,10.098220557475614,0.5062516683891832,0.3742373149562192
0.21646869827521803,0.048532884877376864,9.671051502088089,walking,9.67359557218968,0.22184259791006797,0.3211128759522349,0.18092606984375653,10.012280464524668,0.47158273506393095,0.29636026186599645
-0.01136568424990402,0.001257576960031424,9.985322565425461,sitting,9.985329113047461,0.011435046054953962,0.24627654152551276,0.1518453874198819,9.979708420922865,0.45741903399719536,0.2985030841187939
-0.20534865486558887,0.21711928610624953,9.973800053501195,sitting,9.978276221957119,0.29884587073338353,0.13974159478542697,0.12238227578575293,10.034155841000652,0.42122842079724454,0.27243452497636805
0.12523463622980083,-0.0061776062270560705,9.676569859250304,sitting,9.67738219343856,0.12538690892715676,0.145950872345683,0.1521044087845,10.024344406017253,0.42043070821365125,0.2343760237222471
0.9571136919782282,0.6692177314502916,11.148090080761802,jogging,11.20909592430359,1.1678694239767,0.24364793341231544,0.2290592002392841,10.137612073900701,0.4860159534027018,0.2664273197711542
-0.024258303628979377,-0.0027214132377857006,9.480032117342285,sitting,9.48006354499938,0.02441047695082071,0.2788791327405414,0.18705118961535624,10.015487137991638,0.4472874153303726,0.26655632607334373
0.5458589448727913,0.5707533414154107,10.657009981865697,walking,10.686233345665796,0.7897603208787419,0.3425820312037298,0.25127982656628306,10.088187791577019,0.4338913745920899,0.2745863232673703
0.06504840416007895,-0.08089216340264643,7.5342869766518445,jogging,7.535001996252511,0.1038019122354373,0.27195863398095654,0.20662681580445946,9.869900106380102,0.41334943655928674,0.2898084383550443
-0.08281805638735082,0.13845049626510342,9.564018059065745,sitting,9.565378654528818,0.16133000458635038,0.16632884378949958,0.16132663709270675,9.759535087605936,0.34316788478905774,0.25645807251264563
0.1547498317387378,-0.02620930443695349,9.638862959775139,walking,9.640140745621268,0.15695361755065274,0.17406835081230318,0.15293308297700223,9.732904415572756,0.3418083382489408,0.2615485626276335
0.6748066068656307,0.6298557926337515,9.76894623351276,walking,9.812461097474321,0.9230830277844985,0.21990214167134442,0.21106537375263965,9.742693888715223,0.37703965435920345,0.29784990493499924
0.8638687446219141,-0.5727539025408388,9.571313207854486,jogging,9.627271304147408,1.0364922772555532,0.30742558455852625,0.15366422580255268,9.701292952958125,0.416871250640459,0.3852611698953896
0.6477725922329618,0.12116101526853151,9.239383954169492,walking,9.26285621044793,0.659006314741454,0.39273770926838136,0.14406839871878088,9.627851343024954,0.3864585410113691,0.38469968609078475
-0.017181046380267403,0.02991997660888959,10.00701849343781,sitting,10.007077971184263,0.034502077546104376,0.3784961410073745,0.14767815700237544,9.660896206443706,0.3998053838734609,0.38330004681920876
-0.06292337633874194,0.11829004893875239,9.735181843530588,sitting,9.736103810743566,0.13398465198596213,0.2764924341756775,0.09258538875122149,9.519605382720584,0.364326541976403,0.3367785845443001
0.2060422698444699,0.0662306896647968,9.671524706432088,sitting,9.673945940945837,0.21642532480311996,0.29952249152302246,0.09948059904147975,9.538754641629565,0.3502083263567529,0.3353131338313249
0.9424056681462484,0.0215890575739143,9.525136889225703,jogging,9.57166794708474,0.9426529216849151,0.3391771638503681,0.044564170657330114,9.425567332365565,0.4000979111846271,0.29168571993783715
0.06884959745615665,-0.05773420157083338,9.659306988673267,sitting,9.659724892901098,0.08985268555194348,0.3395572831799759,0.046879966840511426,9.638069333567708,0.3998102352873797,0.29066916455846276
0.5995270868773085,0.645509195302076,10.030682320245164,walking,10.069295042792124,0.8809738072832389,0.4077917975064418,0.09758583674420868,9.68473575968565,0.37730887730980583,0.3471563861349512
-1.1122469229655645,-0.4386816211729693,7.913506153407545,jogging,8.00331896293159,1.1956315412372287,0.28109212203601164,0.05633860507060708,9.512200079048892,0.611665967095199,0.3858471511049197
1.2549659150494594,0.4686553462422918,9.48089094590482,walking,9.575065034224957,1.3396183342644312,0.3391080528543945,0.040218560431461124,9.483394550288097,0.6771654881103091,0.3618450847731607
0.491537172495062,0.9383996044211897,11.457968468441518,jogging,11.506834666115715,1.0593406484801222,0.3018748956417093,0.19133391112766399,9.6720600763468,0.6549788510172521,0.39172300922835357
-0.13845180194249967,-0.04496501938428139,9.823413610768528,sitting,9.824492135609947,0.1455704449033318,0.22325245622416318,0.1747213076623827,9.730463042006704,0.6560321098016759,0.3984937483043892
1.4416686712881606,0.9096149884919795,11.395460583949411,jogging,11.522253681698198,1.7046430667629615,0.3691374279910059,0.2626908088506917,9.869307251057863,0.7518354367738,0.4559349822305745
0.0032275238084707725,-0.008527689012583162,9.725420209179646,walking,9.725424483461362,0.009118025544468345,0.3757525180057272,0.2500090350555581,9.868331087622767,0.7478921967088149,0.46211951225347475
0.6474200601041462,0.4626158483894993,10.786983802096959,walking,10.816292604405104,0.7957173853865407,0.4198902970316948,0.2896475509280284,9.979876997189256,0.7497855167984758,0.4616040932184481
0.5849304321506112,0.3764637614723624,11.983977517985672,jogging,12.00414868808879,0.6956066231411404,0.3841427734321311,0.32513502131787314,10.225761060065253,0.7303760043460792,0.45225277382498424
0.18532733056285683,-0.0954288864740713,8.726240398487953,walking,8.728729826499983,0.20845357235421894,0.3957905467428012,0.3213655528275494,10.132454401046722,0.7257029585777286,0.45594056784560627
0.16443330917333077,0.14059108560139383,9.055430994402947,walking,9.05801494042209,0.21634270617765378,0.35228116897240336,0.2708737418574812,10.0349292684625,0.725173541746797,0.44385336542103887
0.3739400059784101,0.4375551453545841,9.33548594239989,walking,9.3532124649258,0.5755741770592254,0.5008998618668008,0.3584974185102365,10.177127247361733,0.5129047350591567,0.3682672761166306
0.03740620881310435,0.14706619906522894,9.769844184220005,sitting,9.771022621778272,0.15174877714585747,0.37914389124316533,0.3263385037925302,10.206022571193254,0.45529074901508926,0.3716051538754002
-0.0035216139749049413,0.3576498793304286,9.118705189663249,walking,9.125716967665694,0.35766721676728824,0.32963801259616865,0.26826353128345415,9.972096243315425,0.46843703647289936,0.3046761669738413
-0.21685180998271275,0.2493203412609235,9.192574915420048,walking,9.198511777220766,0.33043205059322245,0.3217980117921473,0.2976920673479746,9.909012373780577,0.4777060590685208,0.2846117106676822
0.1138888040576746,0.04921209003351526,9.1095779650456,walking,9.110422777826477,0.12406647208313054,0.1890200250690987,0.21165177750212819,9.680424111890197,0.2721608423372469,0.19502072698387418
0.951598427564139,1.460867692359906,11.932943809234159,jogging,12.059636061517915,1.7434660828142023,0.2838571154446655,0.3585913156393771,9.90117647189565,0.353350620054115,0.42667277096665096
-0.09985703864824397,-0.15510261819833202,10.056132333398265,sitting,10.057824106493294,0.1844674777286621,0.20912940556942652,0.29681946898059397,9.828091325025778,0.34687912997716525,0.4537926135742159
1.7542872926932143,0.9495520962181698,10.842946340668906,jogging,11.024910813034381,1.9947864769787287,0.3260650916236868,0.35412830245517474,9.713988207294102,0.5955831050468293,0.4989125141080393
0.02725179902295931,-0.06295942318637977,10.001881250476659,sitting,10.002116530922567,0.06860429664350055,0.3102575384696971,0.35737524878394383,9.841552292492972,0.6017988399821095,0.4957573721938205
-0.2839934953298996,-0.12503355670699712,9.900990294853964,jogging,9.905851528994612,0.31029936463437297,0.26541485801937403,0.33081278455310476,9.926108222538074,0.6299221750569781,0.515390422226899
0.0058608917371792725,-0.07648492283081032,9.82960589081595,sitting,9.829905201080834,0.07670914855732623,0.228606946595251,0.27940877773456535,9.97552021737968,0.6336192205537132,0.5290157903114578
0.8586084554861508,0.7140778791957042,11.20329462169402,walking,11.258815482894597,1.116743344456974,0.3107271712625556,0.3361099457476128,10.118865261127082,0.6588008227055968,0.5434449581333936
0.8739790403731775,0.3959959173528517,10.034914073672947,jogging,10.080682149317632,0.959506190481201,0.39847723669736385,0.33994454954985515,10.210486149528052,0.6706270983335421,0.5437490354196913
0.4764198699445261,0.14262845071365096,10.076523301462032,walking,10.088787866356306,0.49731153961167596,0.46780440469008777,0.3292753604951279,10.29888098813225,0.6348270981879651,0.5467631725243155
1.0598471991805078,0.34500304271301463,9.935754155046089,walking,9.998075505546437,1.1145865534322605,0.5624002442023711,0.35885445576307784,10.381498607132299,0.6465999700098333,0.5378571058910306
1.5594302125585129,1.6348505111499396,12.604225684600358,jogging,12.805118659738646,2.259327063894802,0.6231834227018085,0.37625273764208117,10.44862679466892,0.712466083008218,0.5787263942699309
0.4713701424209786,0.18363118850515736,9.91335676263429,walking,9.926255715415799,0.505875700699085,0.6803061408087308,0.41012611831243007,10.434349237592523,0.669668324953543,0.5535349675447907
2.4412317715696314,2.1572691409238147,11.648138862142217,jogging,12.095146202533103,3.2578248431895744,0.7490005886963724,0.5308978227829947,10.514868489739852,0.8121531929778074,0.7726778078335499
-0.43985044965503173,0.7413415233074973,9.505433915791471,jogging,9.544439721624334,0.8620067704151831,0.7022903638285733,0.6113279174323824,10.465223756271333,0.8696718605120619,0.745371575771527
0.9390597626787314,0.08059878670222986,8.816354440721055,walking,8.866590947298853,0.9425122823072954,0.8245956896294364,0.631891151773305,10.356760170858042,0.7986572255216446,0.7253677838981968
1.5499306656793261,0.8463942115636447,9.852905613710181,jogging,10.00991594682309,1.7659751498199523,0.9790026670236511,0.7241790652127506,10.359090143147466,0.7715820174178086,0.6826801843692784
0.08767555954083617,0.15917245922031675,7.954558866264318,jogging,7.956634315612306,0.18172197312114488,0.9019093774291196,0.6686885232152118,10.034216567604496,0.8218262035639966,0.7057547996860114
0.18641995258873498,0.26024798748743133,9.849143932599263,sitting,9.854345113642577,0.32012718365431636,0.8331534686506753,0.6551137302286698,10.015639553497127,0.8526075066257089,0.7128525014495476
0.43282918768029455,-0.2945759024538491,8.964285003123964,jogging,8.979561330335,0.5235609496653502,0.8287944004242522,0.6113932949119196,9.90441572366332,0.8547427616879285,0.7596477744811958
0.18478669957021032,-0.017444393428528215,9.87286207211832,sitting,9.87460662134308,0.1856082735228698,0.7412883504632225,0.5751485512977654,9.898126515370544,0.8730568349241233,0.7820854548990801
1.3213884896166517,1.5884017895608173,11.089049975792395,jogging,11.279898809439414,2.0661770944358526,0.7174841781690363,0.5705036791388532,9.746608944489747,0.8512440446400601,0.7752001219502114
1.1470094619734055,0.14855557616441675,9.973705121947233,walking,10.040542481590451,1.1565895836752391,0.785048110124279,0.5669961179047791,9.752643780421042,0.8563370840477752,0.7772218265778512
0.4262220338899704,0.3306223329515045,10.109502439874806,jogging,10.123883441202505,0.5394222364897452,0.583547136356313,0.38433143710754814,9.598780138194302,0.6306614007789152,0.540565992655907
1.1112844968436884,0.8850024245573473,10.239323233776933,jogging,10.337404065342595,1.4206275107844113,0.7386606310061851,0.39869752723253316,9.672169069992847,0.5343912801046714,0.5528768922961326
0.9248420013120733,0.2540926605612558,9.99921476966953,jogging,10.045107854947068,0.9591119890513404,0.7372388548695191,0.4160469146184358,9.790455102887694,0.5338174717663566,0.5444435965712208
0.5291692066567385,-0.041129197923692074,9.793164282982916,jogging,9.807536812762308,0.5307651648286351,0.6351627089672605,0.32729457366970205,9.784480969814968,0.4525580922802068,0.5388063855802975
-0.004504411801092395,0.07787743079777823,9.818518633425372,sitting,9.818828511532043,0.0780075890752724,0.6259447118330674,0.31916507082744816,9.970876946531074,0.4656967985822779,0.5422272860778112
0.10153923286752234,0.04404944961633378,10.051387818141407,sitting,10.051997196602489,0.11068229227309515,0.6174566398609462,0.29754521704033843,9.991101335085288,0.4752730434661626,0.549104024697719
